test_word,reference,old_new,trials.thisRepN,trials.thisTrialN,trials.thisN,trials.thisIndex,trials_2.thisRepN,trials_2.thisTrialN,trials_2.thisN,trials_2.thisIndex,thisRow.t,notes,hello.started,say_hello.started,hello.stopped,guidelines.started,guide.started,key_resp.started,guidelines.stopped,key_resp.keys,key_resp.rt,key_resp.duration,phase_1.started,text.started,phase_1.stopped,study_phase.started,study_text.started,study_slider.started,study_phase.stopped,study_slider.response,study_slider.rt,phase_2.started,text_2.started,phase_2.stopped,test_phase.started,test_text.started,test_textbox.started,submit_text.started,test_mouse.started,test_phase.stopped,test_textbox.text,test_mouse.x,test_mouse.y,test_mouse.leftButton,test_mouse.midButton,test_mouse.rightButton,test_mouse.time,test_mouse.clicked_name,test_text.stopped,thank_you.started,ty.started,thank_you.stopped,participant,date,expName,psychopyVersion,frameRate,expStart,
,,,,,,,,,,,,,0.0060344000812619925,0.02125360001809895,2.502612299984321,,,,,,,,,,,,,,,,,,,,,,,,,,,,,,,,,,,,,,03AN,2024-10-25_11h50.47.336,WORD_PRIMING_EXPERIMENT_AU2220019_NUTAN_KAIN,2024.1.5,None,2024-10-25 11h51.24.723093 +0530,
,,,,,,,,,,,,,,,,2.502666700165719,2.518782600061968,2.518782600061968,4.924204800045118,space,2.3971000998280942,None,,,,,,,,,,,,,,,,,,,,,,,,,,,,,,,03AN,2024-10-25_11h50.47.336,WORD_PRIMING_EXPERIMENT_AU2220019_NUTAN_KAIN,2024.1.5,None,2024-10-25 11h51.24.723093 +0530,
,,,,,,,,,,,,,,,,,,,,,,,4.924259300110862,4.934363899985328,8.430151300039142,,,,,,,,,,,,,,,,,,,,,,,,,,,,03AN,2024-10-25_11h50.47.336,WORD_PRIMING_EXPERIMENT_AU2220019_NUTAN_KAIN,2024.1.5,None,2024-10-25 11h51.24.723093 +0530,
,,,,,,,,,,,27.9684623000212,,,,,,,,,,,,,,,27.946914799977094,27.9684623000212,27.9684623000212,29.04537479998544,1.84375,1.0744035998359323,29.045573600102216,29.058353299973533,32.556209300179034,,,,,,,,,,,,,,,,,,,03AN,2024-10-25_11h50.47.336,WORD_PRIMING_EXPERIMENT_AU2220019_NUTAN_KAIN,2024.1.5,None,2024-10-25 11h51.24.723093 +0530,
ta_l_,table,new,,,,,0,0,0,15,32.61777050001547,,,,,,,,,,,,,,,,,,,,,,,,32.57405550009571,32.61777050001547,32.61777050001547,32.61777050001547,0.0366652999073267,38.01739710010588,table,[-0.0390625],[-0.2890625],[0],[0],[1],[5.4345631001051515],['submit_text'],,,,,03AN,2024-10-25_11h50.47.336,WORD_PRIMING_EXPERIMENT_AU2220019_NUTAN_KAIN,2024.1.5,None,2024-10-25 11h51.24.723093 +0530,
_oo_,book,old ,,,,,0,1,1,13,38.032562599983066,,,,,,,,,,,,,,,,,,,,,,,,38.018900100141764,38.032562599983066,38.032562599983066,38.032562599983066,0.003605100093409419,41.165088000008836,book,[-0.03125],[-0.2942708333333333],[1],[0],[0],[3.1420143998693675],['submit_text'],,,,,03AN,2024-10-25_11h50.47.336,WORD_PRIMING_EXPERIMENT_AU2220019_NUTAN_KAIN,2024.1.5,None,2024-10-25 11h51.24.723093 +0530,
v_s_,vase,new,,,,,0,2,2,17,41.18201810005121,,,,,,,,,,,,,,,,,,,,,,,,41.16625260002911,41.18201810005121,41.18201810005121,41.18201810005121,0.0036730000283569098,44.11363760009408,voss,[-0.026041666666666668],[-0.3020833333333333],[1],[0],[0],[2.9432723000645638],['submit_text'],,,,,03AN,2024-10-25_11h50.47.336,WORD_PRIMING_EXPERIMENT_AU2220019_NUTAN_KAIN,2024.1.5,None,2024-10-25 11h51.24.723093 +0530,
c_s_,case,old ,,,,,0,3,3,5,44.128708500182256,,,,,,,,,,,,,,,,,,,,,,,,44.11454230011441,44.128708500182256,44.128708500182256,44.128708500182256,0.003387399949133396,47.441896700067446,case,[-0.026041666666666668],[-0.3020833333333333],[1],[0],[0],[3.3234333998989314],['submit_text'],,,,,03AN,2024-10-25_11h50.47.336,WORD_PRIMING_EXPERIMENT_AU2220019_NUTAN_KAIN,2024.1.5,None,2024-10-25 11h51.24.723093 +0530,
mo_s_,mouse,old ,,,,,0,4,4,3,47.45848760008812,,,,,,,,,,,,,,,,,,,,,,,,47.442692700074986,47.45848760008812,47.45848760008812,47.45848760008812,0.004522599978372455,51.37254530005157,mouse,[-0.014322916666666666],[-0.3033854166666667],[1],[0],[0],[3.92483859998174],['submit_text'],,,,,03AN,2024-10-25_11h50.47.336,WORD_PRIMING_EXPERIMENT_AU2220019_NUTAN_KAIN,2024.1.5,None,2024-10-25 11h51.24.723093 +0530,
pa_tr_,pastry,old ,,,,,0,5,5,4,51.388068000087515,,,,,,,,,,,,,,,,,,,,,,,,51.37346170004457,51.388068000087515,51.388068000087515,51.388068000087515,0.0040188999846577644,54.10248570004478,pastry,[-0.014322916666666666],[-0.3033854166666667],[1],[0],[0],[2.7245578998699784],['submit_text'],,,,,03AN,2024-10-25_11h50.47.336,WORD_PRIMING_EXPERIMENT_AU2220019_NUTAN_KAIN,2024.1.5,None,2024-10-25 11h51.24.723093 +0530,
p_nc_l,pencil,new,,,,,0,6,6,16,54.11690300004557,,,,,,,,,,,,,,,,,,,,,,,,54.10322679998353,54.11690300004557,54.11690300004557,54.11690300004557,0.003199300030246377,56.43451340007596,pencil,[-0.014322916666666666],[-0.3033854166666667],[1],[0],[0],[2.3271904999855906],['submit_text'],,,,,03AN,2024-10-25_11h50.47.336,WORD_PRIMING_EXPERIMENT_AU2220019_NUTAN_KAIN,2024.1.5,None,2024-10-25 11h51.24.723093 +0530,
l_pt_p ,laptop,old ,,,,,0,7,7,0,56.45455060014501,,,,,,,,,,,,,,,,,,,,,,,,56.43592100008391,56.45455060014501,56.45455060014501,56.45455060014501,0.0048027001321315765,58.780611500144005,laptop,[-0.014322916666666666],[-0.3033854166666667],[1],[0],[0],[2.339432399952784],['submit_text'],,,,,03AN,2024-10-25_11h50.47.336,WORD_PRIMING_EXPERIMENT_AU2220019_NUTAN_KAIN,2024.1.5,None,2024-10-25 11h51.24.723093 +0530,
t_hi_t,tshirt,old ,,,,,0,8,8,2,58.795318300137296,,,,,,,,,,,,,,,,,,,,,,,,58.78148999996483,58.795318300137296,58.795318300137296,58.795318300137296,0.003254899987950921,63.85875690006651,tshirt,[-0.00390625],[-0.3046875],[1],[0],[0],[5.073495300021023],['submit_text'],,,,,03AN,2024-10-25_11h50.47.336,WORD_PRIMING_EXPERIMENT_AU2220019_NUTAN_KAIN,2024.1.5,None,2024-10-25 11h51.24.723093 +0530,
_ho_e,phone,old ,,,,,0,9,9,12,63.87409309996292,,,,,,,,,,,,,,,,,,,,,,,,63.85967110004276,63.87409309996292,63.87409309996292,63.87409309996292,0.002924300031736493,68.1576350000687,chooe,[-0.00390625],[-0.3046875],[1],[0],[0],[4.294051199918613],['submit_text'],,,,,03AN,2024-10-25_11h50.47.336,WORD_PRIMING_EXPERIMENT_AU2220019_NUTAN_KAIN,2024.1.5,None,2024-10-25 11h51.24.723093 +0530,
_o_rd,board,old ,,,,,0,10,10,10,68.17412330000661,,,,,,,,,,,,,,,,,,,,,,,,68.15866040019318,68.17412330000661,68.17412330000661,68.17412330000661,0.0034835999831557274,71.60152570018545,board,[-0.00390625],[-0.3046875],[1],[0],[0],[3.4388105999678373],['submit_text'],,,,,03AN,2024-10-25_11h50.47.336,WORD_PRIMING_EXPERIMENT_AU2220019_NUTAN_KAIN,2024.1.5,None,2024-10-25 11h51.24.723093 +0530,
_ru_se,cruise,old ,,,,,0,11,11,6,71.61617900012061,,,,,,,,,,,,,,,,,,,,,,,,71.60239300015382,71.61617900012061,71.61617900012061,71.61617900012061,0.003252799855545163,83.42431679996662,prise,[0.09505208333333333],[-0.3033854166666667],[1],[0],[0],[11.818079899996519],['submit_text'],81.6240109000355,,,,03AN,2024-10-25_11h50.47.336,WORD_PRIMING_EXPERIMENT_AU2220019_NUTAN_KAIN,2024.1.5,None,2024-10-25 11h51.24.723093 +0530,
k_y_,keys,old ,,,,,0,12,12,8,83.43825690005906,,,,,,,,,,,,,,,,,,,,,,,,83.42517900001258,83.43825690005906,83.43825690005906,83.43825690005906,0.0031099000480026007,87.38791669998318,keys,[0.10677083333333333],[-0.3111979166666667],[1],[0],[0],[3.9587344999890774],['submit_text'],,,,,03AN,2024-10-25_11h50.47.336,WORD_PRIMING_EXPERIMENT_AU2220019_NUTAN_KAIN,2024.1.5,None,2024-10-25 11h51.24.723093 +0530,
_ha_t,chart,old ,,,,,0,13,13,1,87.40624950011261,,,,,,,,,,,,,,,,,,,,,,,,87.38946550013497,87.40624950011261,87.40624950011261,87.40624950011261,0.004442200064659119,90.49955680011772,chart,[0.09114583333333333],[-0.2890625],[1],[0],[0],[3.1051428001374006],['submit_text'],,,,,03AN,2024-10-25_11h50.47.336,WORD_PRIMING_EXPERIMENT_AU2220019_NUTAN_KAIN,2024.1.5,None,2024-10-25 11h51.24.723093 +0530,
p_st_r,poster,old ,,,,,0,14,14,9,90.5175093000289,,,,,,,,,,,,,,,,,,,,,,,,90.5004704000894,90.5175093000289,90.5175093000289,90.5175093000289,0.003892800072208047,93.0980317001231,poster,[0.09765625],[-0.2942708333333333],[1],[0],[0],[2.592991500161588],['submit_text'],,,,,03AN,2024-10-25_11h50.47.336,WORD_PRIMING_EXPERIMENT_AU2220019_NUTAN_KAIN,2024.1.5,None,2024-10-25 11h51.24.723093 +0530,
bo_t_e,bottle,new,,,,,0,15,15,18,93.11162550002337,,,,,,,,,,,,,,,,,,,,,,,,93.09902850002982,93.11162550002337,93.11162550002337,93.11162550002337,0.003562399884685874,101.92341280006804,boltee,[0.09765625],[-0.2942708333333333],[1],[0],[0],[8.819962000008672],['submit_text'],,,,,03AN,2024-10-25_11h50.47.336,WORD_PRIMING_EXPERIMENT_AU2220019_NUTAN_KAIN,2024.1.5,None,2024-10-25 11h51.24.723093 +0530,
c_m_ra,camera,new,,,,,0,16,16,19,101.94193810014986,,,,,,,,,,,,,,,,,,,,,,,,101.92489730007946,101.94193810014986,101.94193810014986,101.94193810014986,0.004597899969667196,105.66886260011233,camera,[0.09114583333333333],[-0.2955729166666667],[1],[0],[0],[3.7386323001701385],['submit_text'],,,,,03AN,2024-10-25_11h50.47.336,WORD_PRIMING_EXPERIMENT_AU2220019_NUTAN_KAIN,2024.1.5,None,2024-10-25 11h51.24.723093 +0530,
_a_bl_,marble,old ,,,,,0,17,17,11,105.68484950019047,,,,,,,,,,,,,,,,,,,,,,,,105.67022019997239,105.68484950019047,105.68484950019047,105.68484950019047,0.0043709001038223505,109.81530270003714,marble,[0.09505208333333333],[-0.30078125],[1],[0],[0],[4.140060700010508],['submit_text'],,,,,03AN,2024-10-25_11h50.47.336,WORD_PRIMING_EXPERIMENT_AU2220019_NUTAN_KAIN,2024.1.5,None,2024-10-25 11h51.24.723093 +0530,
p_li_e,police,old ,,,,,0,18,18,7,109.82982160011306,,,,,,,,,,,,,,,,,,,,,,,,109.81621730001643,109.82982160011306,109.82982160011306,109.82982160011306,0.003246000036597252,112.8967840000987,police,[0.08723958333333333],[-0.2942708333333333],[1],[0],[0],[3.0765111001674086],['submit_text'],,,,,03AN,2024-10-25_11h50.47.336,WORD_PRIMING_EXPERIMENT_AU2220019_NUTAN_KAIN,2024.1.5,None,2024-10-25 11h51.24.723093 +0530,
c_sh_o_,cushion,old ,,,,,0,19,19,14,112.91779400012456,,,,,,,,,,,,,,,,,,,,,,,,112.89780930010602,112.91779400012456,112.91779400012456,112.91779400012456,0.0038702001329511404,116.00894620013423,cushion,[0.08723958333333333],[-0.2942708333333333],[1],[0],[0],[3.106618999969214],['submit_text'],,,,,03AN,2024-10-25_11h50.47.336,WORD_PRIMING_EXPERIMENT_AU2220019_NUTAN_KAIN,2024.1.5,None,2024-10-25 11h51.24.723093 +0530,
,,,,,,,,,,,,,,,,,,,,,,,,,,,,,,,,,,,,,,,,,,,,,,,,,,116.00972339999862,116.02367330016568,120.01998990005814,03AN,2024-10-25_11h50.47.336,WORD_PRIMING_EXPERIMENT_AU2220019_NUTAN_KAIN,2024.1.5,None,2024-10-25 11h51.24.723093 +0530,
