trials.thisRepN,trials.thisTrialN,trials.thisN,trials.thisIndex,thisRow.t,notes,Hello.started,text_2.started,Hello.stopped,guidelines.started,guideline.started,key_resp.started,guidelines.stopped,key_resp.keys,key_resp.rt,key_resp.duration,trial.started,num_distr,mouse.started,polygon.started,target.started,trial.stopped,mouse.x,mouse.y,mouse.leftButton,mouse.midButton,mouse.rightButton,mouse.time,mouse.clicked_name,Thank_you.started,text_3.started,Thank_you.stopped,participant,session,date,expName,psychopyVersion,frameRate,expStart,
,,,,,,0.008600299712270498,0.02470119995996356,0.5087150000035763,,,,,,,,,,,,,,,,,,,,,,,,A1,001,2024-10-07_19h58.30.327,untitled,2024.1.5,None,2024-10-07 19h59.06.540364 +0530,
,,,,,,,,,0.5087645999155939,0.5252279997803271,0.5252279997803271,4.356590199749917,space,3.8140476001426578,None,,,,,,,,,,,,,,,,,A1,001,2024-10-07_19h58.30.327,untitled,2024.1.5,None,2024-10-07 19h59.06.540364 +0530,
0,0,0,0,4.384660699870437,,,,,,,,,,,,4.359021599870175,5,0.019989800173789263,4.384660699870437,4.384660699870437,6.045293599832803,[0.296875],[0.4466145833333333],[1],[0],[0],[1.6857175999321043],['target'],,,,A1,001,2024-10-07_19h58.30.327,untitled,2024.1.5,None,2024-10-07 19h59.06.540364 +0530,
1,0,1,0,6.073834599927068,,,,,,,,,,,,6.050554799847305,5,0.015342199709266424,6.073834599927068,6.073834599927068,7.933852099813521,[-0.4635416666666667],[-0.14713541666666666],[1],[0],[0],[1.8828259999863803],['target'],,,,A1,001,2024-10-07_19h58.30.327,untitled,2024.1.5,None,2024-10-07 19h59.06.540364 +0530,
2,0,2,0,7.98508849972859,,,,,,,,,,,,7.937047000043094,10,0.0349306003190577,7.98508849972859,7.98508849972859,9.899353200104088,[0.4270833333333333],[-0.0546875],[1],[0],[0],[1.961678999941796],['target'],,,,A1,001,2024-10-07_19h58.30.327,untitled,2024.1.5,None,2024-10-07 19h59.06.540364 +0530,
3,0,3,0,9.957248599734157,,,,,,,,,,,,9.904578699730337,10,0.039648199919611216,9.957248599734157,9.957248599734157,12.22994689969346,[-0.4661458333333333],[0.30859375],[1],[0],[0],[2.3249458000063896],['target'],,,,A1,001,2024-10-07_19h58.30.327,untitled,2024.1.5,None,2024-10-07 19h59.06.540364 +0530,
4,0,4,0,12.285387299954891,,,,,,,,,,,,12.232919000089169,10,0.03797969967126846,12.285387299954891,12.285387299954891,14.144924900028855,[0.19140625],[-0.3893229166666667],[1],[0],[0],[1.9115252997726202],['target'],,,,A1,001,2024-10-07_19h58.30.327,untitled,2024.1.5,None,2024-10-07 19h59.06.540364 +0530,
5,0,5,0,14.20445750001818,,,,,,,,,,,,14.1486710999161,10,0.04242950025945902,14.20445750001818,14.20445750001818,15.74335639970377,[0.4388020833333333],[0.20963541666666666],[1],[0],[0],[1.5942393001168966],['target'],,,,A1,001,2024-10-07_19h58.30.327,untitled,2024.1.5,None,2024-10-07 19h59.06.540364 +0530,
6,0,6,0,15.786212099716067,,,,,,,,,,,,15.746317199897021,10,0.03005579998716712,15.786212099716067,15.786212099716067,17.674754299689084,[0.10807291666666667],[-0.19921875],[1],[0],[0],[1.9280103999190032],['target'],,,,A1,001,2024-10-07_19h58.30.327,untitled,2024.1.5,None,2024-10-07 19h59.06.540364 +0530,
7,0,7,0,17.707674299832433,,,,,,,,,,,,17.67958249989897,5,0.021771200001239777,17.707674299832433,17.707674299832433,18.989957799669355,[-0.2604166666666667],[0.45703125],[1],[0],[0],[1.3098817002028227],['target'],,,,A1,001,2024-10-07_19h58.30.327,untitled,2024.1.5,None,2024-10-07 19h59.06.540364 +0530,
8,0,8,0,19.015042500104755,,,,,,,,,,,,18.99284469988197,5,0.015997800044715405,19.015042500104755,19.015042500104755,20.588988800067455,[0.4817708333333333],[-0.14322916666666666],[1],[0],[0],[1.595668500289321],['target'],,,,A1,001,2024-10-07_19h58.30.327,untitled,2024.1.5,None,2024-10-07 19h59.06.540364 +0530,
9,0,9,0,20.631898900028318,,,,,,,,,,,,20.59216329967603,10,0.02984720002859831,20.631898900028318,20.631898900028318,22.46919670002535,[-0.046875],[0.1796875],[1],[0],[0],[1.876535799819976],['target'],,,,A1,001,2024-10-07_19h58.30.327,untitled,2024.1.5,None,2024-10-07 19h59.06.540364 +0530,
10,0,10,0,22.525387600064278,,,,,,,,,,,,22.472912800032645,10,0.039195199962705374,22.525387600064278,22.525387600064278,23.901875900104642,[0.3151041666666667],[-0.44921875],[1],[0],[0],[1.4285524999722838],['target'],,,,A1,001,2024-10-07_19h58.30.327,untitled,2024.1.5,None,2024-10-07 19h59.06.540364 +0530,
11,0,11,0,23.944918499793857,,,,,,,,,,,,23.9049652996473,10,0.03015129966661334,23.944918499793857,23.944918499793857,26.049571599811316,[-0.296875],[0.37109375],[1],[0],[0],[2.1441796999424696],['target'],,,,A1,001,2024-10-07_19h58.30.327,untitled,2024.1.5,None,2024-10-07 19h59.06.540364 +0530,
12,0,12,0,26.075179900042713,,,,,,,,,,,,26.0524943000637,5,0.015830500051379204,26.075179900042713,26.075179900042713,28.11435650009662,[0.3333333333333333],[0.4635416666666667],[1],[0],[0],[2.061425999738276],['target'],,,,A1,001,2024-10-07_19h58.30.327,untitled,2024.1.5,None,2024-10-07 19h59.06.540364 +0530,
13,0,13,0,28.140037899836898,,,,,,,,,,,,28.1174047999084,5,0.015570399817079306,28.140037899836898,28.140037899836898,29.663144999649376,[-0.46484375],[0.2981770833333333],[1],[0],[0],[1.5453170998953283],['target'],,,,A1,001,2024-10-07_19h58.30.327,untitled,2024.1.5,None,2024-10-07 19h59.06.540364 +0530,
14,0,14,0,29.707043199799955,,,,,,,,,,,,29.666068899910897,10,0.029628499876707792,29.707043199799955,29.707043199799955,30.74555359967053,[-0.2864583333333333],[0.4075520833333333],[1],[0],[0],[1.0790876001119614],['target'],,,,A1,001,2024-10-07_19h58.30.327,untitled,2024.1.5,None,2024-10-07 19h59.06.540364 +0530,
15,0,15,0,30.771601599641144,,,,,,,,,,,,30.748444200027734,5,0.015891500283032656,30.771601599641144,30.771601599641144,31.960724900010973,[-0.48828125],[0.3645833333333333],[1],[0],[0],[1.2118062996305525],['target'],,,,A1,001,2024-10-07_19h58.30.327,untitled,2024.1.5,None,2024-10-07 19h59.06.540364 +0530,
16,0,16,0,31.98701409995556,,,,,,,,,,,,31.963871099986136,5,0.01597149996086955,31.98701409995556,31.98701409995556,33.85927479993552,[-0.3033854166666667],[-0.4361979166666667],[1],[0],[0],[1.8949818997643888],['target'],,,,A1,001,2024-10-07_19h58.30.327,untitled,2024.1.5,None,2024-10-07 19h59.06.540364 +0530,
17,0,17,0,33.88508370006457,,,,,,,,,,,,33.862201400101185,5,0.015972900204360485,33.88508370006457,33.88508370006457,35.5580921000801,[-0.3020833333333333],[-0.3372395833333333],[1],[0],[0],[1.695494799874723],['target'],,,,A1,001,2024-10-07_19h58.30.327,untitled,2024.1.5,None,2024-10-07 19h59.06.540364 +0530,
18,0,18,0,35.601780499797314,,,,,,,,,,,,35.56118150008842,10,0.029990300070494413,35.601780499797314,35.601780499797314,37.205641499720514,[0.2604166666666667],[-0.005208333333333333],[1],[0],[0],[1.6440301002003253],['target'],,,,A1,001,2024-10-07_19h58.30.327,untitled,2024.1.5,None,2024-10-07 19h59.06.540364 +0530,
19,0,19,0,37.23474969994277,,,,,,,,,,,,37.20862399972975,5,0.01841849973425269,37.23474969994277,37.23474969994277,38.6380404997617,[-0.20833333333333334],[-0.4440104166666667],[1],[0],[0],[1.4289894998073578],['target'],,,,A1,001,2024-10-07_19h58.30.327,untitled,2024.1.5,None,2024-10-07 19h59.06.540364 +0530,
20,0,20,0,38.686454199720174,,,,,,,,,,,,38.6414502998814,10,0.03340770024806261,38.686454199720174,38.686454199720174,40.618466899730265,[0.4713541666666667],[-0.24479166666666666],[1],[0],[0],[1.9766064998693764],['target'],,,,A1,001,2024-10-07_19h58.30.327,untitled,2024.1.5,None,2024-10-07 19h59.06.540364 +0530,
21,0,21,0,40.66074559977278,,,,,,,,,,,,40.62134329974651,10,0.02897999994456768,40.66074559977278,40.66074559977278,42.26921990001574,[0.25],[-0.4166666666666667],[1],[0],[0],[1.6474115997552872],['target'],,,,A1,001,2024-10-07_19h58.30.327,untitled,2024.1.5,None,2024-10-07 19h59.06.540364 +0530,
22,0,22,0,42.312467799987644,,,,,,,,,,,,42.27249850006774,10,0.029161199927330017,42.312467799987644,42.312467799987644,44.09900809964165,[-0.30859375],[-0.3528645833333333],[1],[0],[0],[1.8260476002469659],['target'],,,,A1,001,2024-10-07_19h58.30.327,untitled,2024.1.5,None,2024-10-07 19h59.06.540364 +0530,
23,0,23,0,44.125752799678594,,,,,,,,,,,,44.10198239982128,5,0.0165047999471426,44.125752799678594,44.125752799678594,46.031334599945694,[0.049479166666666664],[0.13671875],[1],[0],[0],[1.9289208999834955],['target'],,,,A1,001,2024-10-07_19h58.30.327,untitled,2024.1.5,None,2024-10-07 19h59.06.540364 +0530,
24,0,24,0,46.108210999984294,,,,,,,,,,,,46.03433999978006,10,0.030094599816948175,46.108210999984294,46.108210999984294,47.678603099659085,[0.16015625],[-0.3177083333333333],[1],[0],[0],[1.643858200404793],['target'],,,,A1,001,2024-10-07_19h58.30.327,untitled,2024.1.5,None,2024-10-07 19h59.06.540364 +0530,
25,0,25,0,47.72187480004504,,,,,,,,,,,,47.68153019994497,10,0.02992819994688034,47.72187480004504,47.72187480004504,49.12747940002009,[0.10807291666666667],[-0.18359375],[1],[0],[0],[1.4455218999646604],['target'],,,,A1,001,2024-10-07_19h58.30.327,untitled,2024.1.5,None,2024-10-07 19h59.06.540364 +0530,
26,0,26,0,49.17045019986108,,,,,,,,,,,,49.13042079983279,10,0.029642799869179726,49.17045019986108,49.17045019986108,50.892638199962676,[0.45703125],[0.07161458333333333],[1],[0],[0],[1.761776499915868],['target'],,,,A1,001,2024-10-07_19h58.30.327,untitled,2024.1.5,None,2024-10-07 19h59.06.540364 +0530,
27,0,27,0,50.91855870001018,,,,,,,,,,,,50.89578229980543,5,0.015427999664098024,50.91855870001018,50.91855870001018,52.50741309998557,[-0.38671875],[-0.4583333333333333],[1],[0],[0],[1.6112183001823723],['target'],,,,A1,001,2024-10-07_19h58.30.327,untitled,2024.1.5,None,2024-10-07 19h59.06.540364 +0530,
28,0,28,0,52.57812719978392,,,,,,,,,,,,52.51041419990361,10,0.056921299546957016,52.57812719978392,52.57812719978392,54.42278319969773,[0.3463541666666667],[0.0],[1],[0],[0],[1.9118504002690315],['target'],,,,A1,001,2024-10-07_19h58.30.327,untitled,2024.1.5,None,2024-10-07 19h59.06.540364 +0530,
29,0,29,0,54.44882189994678,,,,,,,,,,,,54.425748999696225,5,0.01578839961439371,54.44882189994678,54.44882189994678,55.82103609992191,[-0.0390625],[0.3111979166666667],[1],[0],[0],[1.3948181997984648],['target'],,,,A1,001,2024-10-07_19h58.30.327,untitled,2024.1.5,None,2024-10-07 19h59.06.540364 +0530,
30,0,30,0,55.84721349971369,,,,,,,,,,,,55.823906699661165,5,0.015526499599218369,55.84721349971369,55.84721349971369,57.003236999735236,[-0.09635416666666667],[0.3125],[1],[0],[0],[1.1789226001128554],['target'],,,,A1,001,2024-10-07_19h58.30.327,untitled,2024.1.5,None,2024-10-07 19h59.06.540364 +0530,
31,0,31,0,57.04707180010155,,,,,,,,,,,,57.00618979986757,10,0.02997539984062314,57.04707180010155,57.04707180010155,58.51848790002987,[0.3151041666666667],[0.18619791666666666],[1],[0],[0],[1.5117535996250808],['target'],,,,A1,001,2024-10-07_19h58.30.327,untitled,2024.1.5,None,2024-10-07 19h59.06.540364 +0530,
32,0,32,0,58.56154099991545,,,,,,,,,,,,58.52150809997693,10,0.029133799951523542,58.56154099991545,58.56154099991545,60.15001939982176,[-0.3854166666666667],[0.020833333333333332],[1],[0],[0],[1.628108000382781],['target'],,,,A1,001,2024-10-07_19h58.30.327,untitled,2024.1.5,None,2024-10-07 19h59.06.540364 +0530,
33,0,33,0,60.19352269964293,,,,,,,,,,,,60.153026999905705,10,0.029705899767577648,60.19352269964293,60.19352269964293,61.632491199765354,[0.4140625],[0.3020833333333333],[1],[0],[0],[1.4789363997988403],['target'],,,,A1,001,2024-10-07_19h58.30.327,untitled,2024.1.5,None,2024-10-07 19h59.06.540364 +0530,
34,0,34,0,61.65856819972396,,,,,,,,,,,,61.63541109999642,5,0.0160438003949821,61.65856819972396,61.65856819972396,63.396562499925494,[-0.46875],[-0.3033854166666667],[1],[0],[0],[1.7606708998791873],['target'],,,,A1,001,2024-10-07_19h58.30.327,untitled,2024.1.5,None,2024-10-07 19h59.06.540364 +0530,
35,0,35,0,63.422447899822146,,,,,,,,,,,,63.39963859971613,5,0.015759999863803387,63.422447899822146,63.422447899822146,64.29679749999195,[-0.4036458333333333],[-0.33203125],[1],[0],[0],[0.8965964000672102],['target'],,,,A1,001,2024-10-07_19h58.30.327,untitled,2024.1.5,None,2024-10-07 19h59.06.540364 +0530,
36,0,36,0,64.33988789981231,,,,,,,,,,,,64.29970410000533,10,0.02932710014283657,64.33988789981231,64.33988789981231,66.32764509972185,[0.4427083333333333],[0.2578125],[1],[0],[0],[2.0275260997004807],['target'],,,,A1,001,2024-10-07_19h58.30.327,untitled,2024.1.5,None,2024-10-07 19h59.06.540364 +0530,
37,0,37,0,66.37192479986697,,,,,,,,,,,,66.33065789984539,10,0.029864899814128876,66.37192479986697,66.37192479986697,68.60821599978954,[-0.3268229166666667],[-0.203125],[1],[0],[0],[2.2770287999883294],['target'],,,,A1,001,2024-10-07_19h58.30.327,untitled,2024.1.5,None,2024-10-07 19h59.06.540364 +0530,
38,0,38,0,68.63393649971113,,,,,,,,,,,,68.61107489978895,5,0.015325599815696478,68.63393649971113,68.63393649971113,69.64066549995914,[-0.18229166666666666],[-0.1015625],[1],[0],[0],[1.0291377999819815],['target'],,,,A1,001,2024-10-07_19h58.30.327,untitled,2024.1.5,None,2024-10-07 19h59.06.540364 +0530,
39,0,39,0,69.68390449974686,,,,,,,,,,,,69.64352979976684,10,0.02957849996164441,69.68390449974686,69.68390449974686,71.15556169999763,[-0.4609375],[-0.08463541666666667],[1],[0],[0],[1.5115684997290373],['target'],,,,A1,001,2024-10-07_19h58.30.327,untitled,2024.1.5,None,2024-10-07 19h59.06.540364 +0530,
40,0,40,0,71.1815248997882,,,,,,,,,,,,71.1584047996439,5,0.015730399638414383,71.1815248997882,71.1815248997882,72.40511529985815,[-0.40625],[-0.1953125],[1],[0],[0],[1.2461323998868465],['target'],,,,A1,001,2024-10-07_19h58.30.327,untitled,2024.1.5,None,2024-10-07 19h59.06.540364 +0530,
41,0,41,0,72.43064699973911,,,,,,,,,,,,72.40797499986365,5,0.015567599795758724,72.43064699973911,72.43064699973911,73.86957609979436,[-0.15625],[-0.2109375],[1],[0],[0],[1.4610700998455286],['target'],,,,A1,001,2024-10-07_19h58.30.327,untitled,2024.1.5,None,2024-10-07 19h59.06.540364 +0530,
42,0,42,0,73.91382170002908,,,,,,,,,,,,73.87246549967676,10,0.030071099754422903,73.91382170002908,73.91382170002908,75.71792460000142,[0.5],[-0.3111979166666667],[1],[0],[0],[1.8450477998703718],['target'],,,,A1,001,2024-10-07_19h58.30.327,untitled,2024.1.5,None,2024-10-07 19h59.06.540364 +0530,
43,0,43,0,75.76102289976552,,,,,,,,,,,,75.72083080001175,10,0.029185299761593342,75.76102289976552,75.76102289976552,77.79913079971448,[0.2526041666666667],[0.23046875],[1],[0],[0],[2.077826399821788],['target'],,,,A1,001,2024-10-07_19h58.30.327,untitled,2024.1.5,None,2024-10-07 19h59.06.540364 +0530,
44,0,44,0,77.82569409999996,,,,,,,,,,,,77.80223109992221,5,0.016010800376534462,77.82569409999996,77.82569409999996,79.59735179971904,[0.2825520833333333],[-0.4596354166666667],[1],[0],[0],[1.794698600191623],['target'],,,,A1,001,2024-10-07_19h58.30.327,untitled,2024.1.5,None,2024-10-07 19h59.06.540364 +0530,
45,0,45,0,79.68976600002497,,,,,,,,,,,,79.6002428997308,10,0.0784139996394515,79.68976600002497,79.68976600002497,81.47884429991245,[0.3138020833333333],[0.11979166666666667],[1],[0],[0],[1.8781830999068916],['target'],,,,A1,001,2024-10-07_19h58.30.327,untitled,2024.1.5,None,2024-10-07 19h59.06.540364 +0530,
46,0,46,0,81.50417069997638,,,,,,,,,,,,81.48177880002186,5,0.01526450039818883,81.50417069997638,81.50417069997638,82.87757179979235,[0.4231770833333333],[0.3736979166666667],[1],[0],[0],[1.3953980999067426],['target'],,,,A1,001,2024-10-07_19h58.30.327,untitled,2024.1.5,None,2024-10-07 19h59.06.540364 +0530,
47,0,47,0,82.903356899973,,,,,,,,,,,,82.88047460000962,5,0.015598199795931578,82.903356899973,82.903356899973,84.7422275999561,[0.23307291666666666],[-0.22786458333333334],[1],[0],[0],[1.8612446999177337],['target'],,,,A1,001,2024-10-07_19h58.30.327,untitled,2024.1.5,None,2024-10-07 19h59.06.540364 +0530,
48,0,48,0,84.78480749996379,,,,,,,,,,,,84.74514020001516,10,0.029339800123125315,84.78480749996379,84.78480749996379,86.57448659976944,[0.07552083333333333],[0.16276041666666666],[1],[0],[0],[1.828826999757439],['target'],,,,A1,001,2024-10-07_19h58.30.327,untitled,2024.1.5,None,2024-10-07 19h59.06.540364 +0530,
49,0,49,0,86.62405009986833,,,,,,,,,,,,86.57744670007378,5,0.015217499807476997,86.62405009986833,86.62405009986833,88.09047059994191,[-0.23046875],[0.2838541666666667],[1],[0],[0],[1.5125931999646127],['target'],,,,A1,001,2024-10-07_19h58.30.327,untitled,2024.1.5,None,2024-10-07 19h59.06.540364 +0530,
50,0,50,0,88.13346929987893,,,,,,,,,,,,88.09337599994615,10,0.0294642997905612,88.13346929987893,88.13346929987893,89.6708325999789,[0.20703125],[0.4114583333333333],[1],[0],[0],[1.5769829000346363],['target'],,,,A1,001,2024-10-07_19h58.30.327,untitled,2024.1.5,None,2024-10-07 19h59.06.540364 +0530,
51,0,51,0,89.71589649980888,,,,,,,,,,,,89.67468039970845,10,0.029976799618452787,89.71589649980888,89.71589649980888,91.18634049966931,[0.3046875],[0.05078125],[1],[0],[0],[1.511258200276643],['target'],,,,A1,001,2024-10-07_19h58.30.327,untitled,2024.1.5,None,2024-10-07 19h59.06.540364 +0530,
52,0,52,0,91.21250549983233,,,,,,,,,,,,91.189485500101,5,0.015901099890470505,91.21250549983233,91.21250549983233,92.60166670009494,[-0.00390625],[-0.15625],[1],[0],[0],[1.4117553997784853],['target'],,,,A1,001,2024-10-07_19h58.30.327,untitled,2024.1.5,None,2024-10-07 19h59.06.540364 +0530,
53,0,53,0,92.62826049979776,,,,,,,,,,,,92.60477160010487,5,0.015897399745881557,92.62826049979776,92.62826049979776,93.91675890004262,[0.057291666666666664],[-0.4518229166666667],[1],[0],[0],[1.3115529003553092],['target'],,,,A1,001,2024-10-07_19h58.30.327,untitled,2024.1.5,None,2024-10-07 19h59.06.540364 +0530,
54,0,54,0,93.943712499924,,,,,,,,,,,,93.91968039982021,5,0.016526900231838226,93.943712499924,93.943712499924,95.0658594998531,[-0.2682291666666667],[-0.3658854166666667],[1],[0],[0],[1.1456654001958668],['target'],,,,A1,001,2024-10-07_19h58.30.327,untitled,2024.1.5,None,2024-10-07 19h59.06.540364 +0530,
55,0,55,0,95.10928760003299,,,,,,,,,,,,95.06872989982367,10,0.028980900067836046,95.10928760003299,95.10928760003299,97.51394979981706,[0.3450520833333333],[0.3385416666666667],[1],[0],[0],[2.444801100064069],['target'],,,,A1,001,2024-10-07_19h58.30.327,untitled,2024.1.5,None,2024-10-07 19h59.06.540364 +0530,
56,0,56,0,97.56922749988735,,,,,,,,,,,,97.51691849995404,5,0.044913399964571,97.56922749988735,97.56922749988735,99.71181329991668,[-0.20963541666666666],[0.5],[1],[0],[0],[2.1944645000621676],['target'],,,,A1,001,2024-10-07_19h58.30.327,untitled,2024.1.5,None,2024-10-07 19h59.06.540364 +0530,
57,0,57,0,99.75603519985452,,,,,,,,,,,,99.71468759980053,10,0.03016229998320341,99.75603519985452,99.75603519985452,101.14355539996177,[0.11197916666666667],[0.20963541666666666],[1],[0],[0],[1.4284141999669373],['target'],,,,A1,001,2024-10-07_19h58.30.327,untitled,2024.1.5,None,2024-10-07 19h59.06.540364 +0530,
58,0,58,0,101.16946269990876,,,,,,,,,,,,101.14664259972051,5,0.015793500002473593,101.16946269990876,101.16946269990876,103.09085359983146,[-0.016927083333333332],[0.026041666666666668],[1],[0],[0],[1.943805200047791],['target'],,,,A1,001,2024-10-07_19h58.30.327,untitled,2024.1.5,None,2024-10-07 19h59.06.540364 +0530,
59,0,59,0,103.13434389978647,,,,,,,,,,,,103.09371039969847,10,0.02940570004284382,103.13434389978647,103.13434389978647,104.42287499969825,[0.23697916666666666],[0.2109375],[1],[0],[0],[1.3287690998986363],['target'],,,,A1,001,2024-10-07_19h58.30.327,untitled,2024.1.5,None,2024-10-07 19h59.06.540364 +0530,
60,0,60,0,104.44964719982818,,,,,,,,,,,,104.42579140001908,5,0.016403399873524904,104.44964719982818,104.44964719982818,105.68938579969108,[-0.0026041666666666665],[0.09375],[1],[0],[0],[1.2630934999324381],['target'],,,,A1,001,2024-10-07_19h58.30.327,untitled,2024.1.5,None,2024-10-07 19h59.06.540364 +0530,
61,0,61,0,105.71502459980547,,,,,,,,,,,,105.69225599989295,5,0.01518179988488555,105.71502459980547,105.71502459980547,107.27098440006375,[-0.4140625],[0.040364583333333336],[1],[0],[0],[1.5782802002504468],['target'],,,,A1,001,2024-10-07_19h58.30.327,untitled,2024.1.5,None,2024-10-07 19h59.06.540364 +0530,
62,0,62,0,107.29740609973669,,,,,,,,,,,,107.27386859990656,5,0.015573200304061174,107.29740609973669,107.29740609973669,108.93577269976959,[0.059895833333333336],[0.49609375],[1],[0],[0],[1.661488600075245],['target'],,,,A1,001,2024-10-07_19h58.30.327,untitled,2024.1.5,None,2024-10-07 19h59.06.540364 +0530,
63,0,63,0,108.96142409974709,,,,,,,,,,,,108.9387508998625,5,0.015726699959486723,108.96142409974709,108.96142409974709,110.53442210005596,[0.3606770833333333],[-0.18880208333333334],[1],[0],[0],[1.5952456998638809],['target'],,,,A1,001,2024-10-07_19h58.30.327,untitled,2024.1.5,None,2024-10-07 19h59.06.540364 +0530,
64,0,64,0,110.56040229974315,,,,,,,,,,,,110.53734129993245,5,0.01560869999229908,110.56040229974315,110.56040229974315,112.3823016998358,[-0.4544270833333333],[-0.23307291666666666],[1],[0],[0],[1.8445554999634624],['target'],,,,A1,001,2024-10-07_19h58.30.327,untitled,2024.1.5,None,2024-10-07 19h59.06.540364 +0530,
65,0,65,0,112.40870429994538,,,,,,,,,,,,112.38528360007331,5,0.016049899626523256,112.40870429994538,112.40870429994538,113.33162349974737,[-0.4283854166666667],[-0.15234375],[1],[0],[0],[0.9458461999893188],['target'],,,,A1,001,2024-10-07_19h58.30.327,untitled,2024.1.5,None,2024-10-07 19h59.06.540364 +0530,
66,0,66,0,113.35756659973413,,,,,,,,,,,,113.33453319966793,5,0.015187900047749281,113.35756659973413,113.35756659973413,114.79657289991155,[0.3411458333333333],[-0.045572916666666664],[1],[0],[0],[1.461618599947542],['target'],,,,A1,001,2024-10-07_19h58.30.327,untitled,2024.1.5,None,2024-10-07 19h59.06.540364 +0530,
67,0,67,0,114.82234849967062,,,,,,,,,,,,114.79947560001165,5,0.015776300337165594,114.82234849967062,114.82234849967062,116.46164199989289,[-0.15494791666666666],[0.4466145833333333],[1],[0],[0],[1.6617425996810198],['target'],,,,A1,001,2024-10-07_19h58.30.327,untitled,2024.1.5,None,2024-10-07 19h59.06.540364 +0530,
68,0,68,0,116.5049216998741,,,,,,,,,,,,116.46467769984156,10,0.029602999798953533,116.5049216998741,116.5049216998741,117.72753719985485,[0.19401041666666666],[0.4973958333333333],[1],[0],[0],[1.2623681998811662],['target'],,,,A1,001,2024-10-07_19h58.30.327,untitled,2024.1.5,None,2024-10-07 19h59.06.540364 +0530,
69,0,69,0,117.77054570009932,,,,,,,,,,,,117.73041209997609,10,0.028847699984908104,117.77054570009932,117.77054570009932,119.10864149965346,[-0.08723958333333333],[0.049479166666666664],[1],[0],[0],[1.377715399954468],['target'],,,,A1,001,2024-10-07_19h58.30.327,untitled,2024.1.5,None,2024-10-07 19h59.06.540364 +0530,
70,0,70,0,119.13377390010282,,,,,,,,,,,,119.11155059980229,5,0.014952600002288818,119.13377390010282,119.13377390010282,120.34114099992439,[-0.41015625],[0.055989583333333336],[1],[0],[0],[1.2291147001087666],['target'],,,,A1,001,2024-10-07_19h58.30.327,untitled,2024.1.5,None,2024-10-07 19h59.06.540364 +0530,
71,0,71,0,120.38881859974936,,,,,,,,,,,,120.34414110006765,10,0.03391700005158782,120.38881859974936,120.38881859974936,122.42184219975024,[0.0234375],[0.30859375],[1],[0],[0],[2.0773132001049817],['target'],,,,A1,001,2024-10-07_19h58.30.327,untitled,2024.1.5,None,2024-10-07 19h59.06.540364 +0530,
72,0,72,0,122.44796029990539,,,,,,,,,,,,122.42473529977724,5,0.015126100275665522,122.44796029990539,122.44796029990539,123.83775579975918,[0.3463541666666667],[-0.055989583333333336],[1],[0],[0],[1.4125005002133548],['target'],,,,A1,001,2024-10-07_19h58.30.327,untitled,2024.1.5,None,2024-10-07 19h59.06.540364 +0530,
73,0,73,0,123.8634484000504,,,,,,,,,,,,123.84062719997019,5,0.01524259988218546,123.8634484000504,123.8634484000504,125.07054879982024,[-0.10677083333333333],[0.12760416666666666],[1],[0],[0],[1.229376900009811],['target'],,,,A1,001,2024-10-07_19h58.30.327,untitled,2024.1.5,None,2024-10-07 19h59.06.540364 +0530,
74,0,74,0,125.09609419992194,,,,,,,,,,,,125.07337539969012,5,0.015321100130677223,125.09609419992194,125.09609419992194,126.2680985997431,[-0.2552083333333333],[0.06901041666666667],[1],[0],[0],[1.1942300996743143],['target'],,,,A1,001,2024-10-07_19h58.30.327,untitled,2024.1.5,None,2024-10-07 19h59.06.540364 +0530,
75,0,75,0,126.29343959968537,,,,,,,,,,,,126.27093639969826,5,0.01524639967828989,126.29343959968537,126.29343959968537,127.88400870002806,[0.22265625],[-0.453125],[1],[0],[0],[1.6125194998458028],['target'],,,,A1,001,2024-10-07_19h58.30.327,untitled,2024.1.5,None,2024-10-07 19h59.06.540364 +0530,
76,0,76,0,127.90962799964473,,,,,,,,,,,,127.88703399989754,5,0.014933899976313114,127.90962799964473,127.90962799964473,129.94821579987183,[-0.22526041666666666],[0.41015625],[1],[0],[0],[2.060770200099796],['target'],,,,A1,001,2024-10-07_19h58.30.327,untitled,2024.1.5,None,2024-10-07 19h59.06.540364 +0530,
77,0,77,0,129.99145609978586,,,,,,,,,,,,129.95106429979205,10,0.029399599879980087,129.99145609978586,129.99145609978586,131.5138538996689,[-0.4153645833333333],[0.4674479166666667],[1],[0],[0],[1.5623763999901712],['target'],,,,A1,001,2024-10-07_19h58.30.327,untitled,2024.1.5,None,2024-10-07 19h59.06.540364 +0530,
78,0,78,0,131.5577422999777,,,,,,,,,,,,131.51674949983135,10,0.029970699921250343,131.5577422999777,131.5577422999777,134.8272798000835,[0.23307291666666666],[0.43359375],[1],[0],[0],[3.3101477003656328],['target'],,,,A1,001,2024-10-07_19h58.30.327,untitled,2024.1.5,None,2024-10-07 19h59.06.540364 +0530,
79,0,79,0,134.85277649993077,,,,,,,,,,,,134.83020169986412,5,0.015513000078499317,134.85277649993077,134.85277649993077,138.44023659965023,[-0.20442708333333334],[-0.4153645833333333],[1],[0],[0],[3.609628699719906],['target'],,,,A1,001,2024-10-07_19h58.30.327,untitled,2024.1.5,None,2024-10-07 19h59.06.540364 +0530,
80,0,80,0,138.48604799993336,,,,,,,,,,,,138.44322149967775,10,0.028856100048869848,138.48604799993336,138.48604799993336,141.0869318996556,[-0.17057291666666666],[0.24869791666666666],[1],[0],[0],[2.6433590999804437],['target'],,,,A1,001,2024-10-07_19h58.30.327,untitled,2024.1.5,None,2024-10-07 19h59.06.540364 +0530,
81,0,81,0,141.11330079985783,,,,,,,,,,,,141.0898700999096,5,0.015913699753582478,141.11330079985783,141.11330079985783,145.23383780010045,[0.3138020833333333],[0.46484375],[1],[0],[0],[4.143527400214225],['target'],,,,A1,001,2024-10-07_19h58.30.327,untitled,2024.1.5,None,2024-10-07 19h59.06.540364 +0530,
82,0,82,0,145.25993550010026,,,,,,,,,,,,145.2368270996958,5,0.01587899960577488,145.25993550010026,145.25993550010026,147.09901609970257,[-0.2682291666666667],[0.2669270833333333],[1],[0],[0],[1.8616542997770011],['target'],,,,A1,001,2024-10-07_19h58.30.327,untitled,2024.1.5,None,2024-10-07 19h59.06.540364 +0530,
83,0,83,0,147.1254257997498,,,,,,,,,,,,147.10194909991696,5,0.015827300027012825,147.1254257997498,147.1254257997498,150.16246829973534,[0.3333333333333333],[0.4791666666666667],[1],[0],[0],[3.060071900021285],['target'],,,,A1,001,2024-10-07_19h58.30.327,untitled,2024.1.5,None,2024-10-07 19h59.06.540364 +0530,
84,0,84,0,150.21235899999738,,,,,,,,,,,,150.1654261997901,10,0.03544069966301322,150.21235899999738,150.21235899999738,152.69259579991922,[-0.296875],[-0.19791666666666666],[1],[0],[0],[2.526743599679321],['target'],,,,A1,001,2024-10-07_19h58.30.327,untitled,2024.1.5,None,2024-10-07 19h59.06.540364 +0530,
85,0,85,0,152.73645209986717,,,,,,,,,,,,152.6955001000315,10,0.029375600162893534,152.73645209986717,152.73645209986717,154.1746864998713,[0.328125],[-0.11067708333333333],[1],[0],[0],[1.478761900216341],['target'],,,,A1,001,2024-10-07_19h58.30.327,untitled,2024.1.5,None,2024-10-07 19h59.06.540364 +0530,
86,0,86,0,154.21887880004942,,,,,,,,,,,,154.17764539970085,10,0.029806900303810835,154.21887880004942,154.21887880004942,156.17266590008512,[0.15494791666666666],[0.4361979166666667],[1],[0],[0],[1.9945926000364125],['target'],,,,A1,001,2024-10-07_19h58.30.327,untitled,2024.1.5,None,2024-10-07 19h59.06.540364 +0530,
87,0,87,0,156.19926939997822,,,,,,,,,,,,156.17556949984282,5,0.016174899879842997,156.19926939997822,156.19926939997822,157.90432309964672,[-0.3098958333333333],[-0.3502604166666667],[1],[0],[0],[1.7282969001680613],['target'],,,,A1,001,2024-10-07_19h58.30.327,untitled,2024.1.5,None,2024-10-07 19h59.06.540364 +0530,
88,0,88,0,157.93122329981998,,,,,,,,,,,,157.9073222000152,5,0.016438200138509274,157.93122329981998,157.93122329981998,159.11964659998193,[0.08072916666666667],[0.3502604166666667],[1],[0],[0],[1.211913499981165],['target'],,,,A1,001,2024-10-07_19h58.30.327,untitled,2024.1.5,None,2024-10-07 19h59.06.540364 +0530,
89,0,89,0,159.145928400103,,,,,,,,,,,,159.12260709982365,5,0.016394299920648336,159.145928400103,159.145928400103,160.4184133000672,[-0.19401041666666666],[0.06640625],[1],[0],[0],[1.295359100215137],['target'],,,,A1,001,2024-10-07_19h58.30.327,untitled,2024.1.5,None,2024-10-07 19h59.06.540364 +0530,
90,0,90,0,160.46262250002474,,,,,,,,,,,,160.42152659967542,10,0.03044729959219694,160.46262250002474,160.46262250002474,161.89952509989962,[0.2864583333333333],[0.09244791666666667],[1],[0],[0],[1.4775507999584079],['target'],,,,A1,001,2024-10-07_19h58.30.327,untitled,2024.1.5,None,2024-10-07 19h59.06.540364 +0530,
91,0,91,0,161.92651479970664,,,,,,,,,,,,161.90286780009046,5,0.016723699867725372,161.92651479970664,161.92651479970664,163.48191969981417,[0.22526041666666666],[-0.2421875],[1],[0],[0],[1.5786738996393979],['target'],,,,A1,001,2024-10-07_19h58.30.327,untitled,2024.1.5,None,2024-10-07 19h59.06.540364 +0530,
92,0,92,0,163.52685869997367,,,,,,,,,,,,163.4848658000119,10,0.030925999861210585,163.52685869997367,163.52685869997367,165.5462301997468,[-0.17838541666666666],[0.4075520833333333],[1],[0],[0],[2.0609400998800993],['target'],,,,A1,001,2024-10-07_19h58.30.327,untitled,2024.1.5,None,2024-10-07 19h59.06.540364 +0530,
93,0,93,0,165.59127099998295,,,,,,,,,,,,165.54919969988987,10,0.031496299896389246,165.59127099998295,165.59127099998295,167.91083229985088,[-0.23697916666666666],[-0.3151041666666667],[1],[0],[0],[2.361098200082779],['target'],,,,A1,001,2024-10-07_19h58.30.327,untitled,2024.1.5,None,2024-10-07 19h59.06.540364 +0530,
94,0,94,0,167.93609149986878,,,,,,,,,,,,167.91383320000023,5,0.01561299990862608,167.93609149986878,167.93609149986878,169.74191749980673,[0.016927083333333332],[0.4752604166666667],[1],[0],[0],[1.8276487002149224],['target'],,,,A1,001,2024-10-07_19h58.30.327,untitled,2024.1.5,None,2024-10-07 19h59.06.540364 +0530,
95,0,95,0,169.78488479973748,,,,,,,,,,,,169.74496109969914,10,0.02927830023691058,169.78488479973748,169.78488479973748,172.02315549971536,[-0.16796875],[-0.453125],[1],[0],[0],[2.2777662998996675],['target'],,,,A1,001,2024-10-07_19h58.30.327,untitled,2024.1.5,None,2024-10-07 19h59.06.540364 +0530,
96,0,96,0,172.048208899796,,,,,,,,,,,,172.02636899985373,5,0.015338000375777483,172.048208899796,172.048208899796,173.9051075996831,[0.4440104166666667],[0.3411458333333333],[1],[0],[0],[1.8783005001023412],['target'],,,,A1,001,2024-10-07_19h58.30.327,untitled,2024.1.5,None,2024-10-07 19h59.06.540364 +0530,
97,0,97,0,173.9298188998364,,,,,,,,,,,,173.90805190009996,5,0.015388600062578917,173.9298188998364,173.9298188998364,175.42062029987574,[-0.3776041666666667],[0.4283854166666667],[1],[0],[0],[1.5120824999175966],['target'],,,,A1,001,2024-10-07_19h58.30.327,untitled,2024.1.5,None,2024-10-07 19h59.06.540364 +0530,
98,0,98,0,175.46442390000448,,,,,,,,,,,,175.4235196998343,10,0.030429200269281864,175.46442390000448,175.46442390000448,177.5854400000535,[-0.037760416666666664],[-0.4049479166666667],[1],[0],[0],[2.1614848002791405],['target'],,,,A1,001,2024-10-07_19h58.30.327,untitled,2024.1.5,None,2024-10-07 19h59.06.540364 +0530,
99,0,99,0,177.62842419976369,,,,,,,,,,,,177.58833679975942,10,0.02959380019456148,177.62842419976369,177.62842419976369,179.41649900004268,[-0.045572916666666664],[0.4283854166666667],[1],[0],[0],[1.8276358000002801],['target'],,,,A1,001,2024-10-07_19h58.30.327,untitled,2024.1.5,None,2024-10-07 19h59.06.540364 +0530,
100,0,100,0,179.46046190010384,,,,,,,,,,,,179.41938839992508,10,0.030131899751722813,179.46046190010384,179.46046190010384,180.74814409995452,[0.028645833333333332],[0.3098958333333333],[1],[0],[0],[1.3283321000635624],['target'],,,,A1,001,2024-10-07_19h58.30.327,untitled,2024.1.5,None,2024-10-07 19h59.06.540364 +0530,
101,0,101,0,180.79245639964938,,,,,,,,,,,,180.7510619997047,10,0.030953899957239628,180.79245639964938,180.79245639964938,182.26395739987493,[-0.25390625],[-0.13932291666666666],[1],[0],[0],[1.5123866996727884],['target'],,,,A1,001,2024-10-07_19h58.30.327,untitled,2024.1.5,None,2024-10-07 19h59.06.540364 +0530,
102,0,102,0,182.30730749992654,,,,,,,,,,,,182.26691409992054,10,0.02913859998807311,182.30730749992654,182.30730749992654,184.34562839986756,[0.2877604166666667],[0.4205729166666667],[1],[0],[0],[2.078254099935293],['target'],,,,A1,001,2024-10-07_19h58.30.327,untitled,2024.1.5,None,2024-10-07 19h59.06.540364 +0530,
103,0,103,0,184.38981510000303,,,,,,,,,,,,184.3487546998076,10,0.030041399877518415,184.38981510000303,184.38981510000303,187.70771129988134,[0.07942708333333333],[-0.47265625],[1],[0],[0],[3.3585385996848345],['target'],,,,A1,001,2024-10-07_19h58.30.327,untitled,2024.1.5,None,2024-10-07 19h59.06.540364 +0530,
104,0,104,0,187.73295029997826,,,,,,,,,,,,187.71060299966484,5,0.014926400035619736,187.73295029997826,187.73295029997826,190.2723840996623,[0.3072916666666667],[-0.12239583333333333],[1],[0],[0],[2.5613351999782026],['target'],,,,A1,001,2024-10-07_19h58.30.327,untitled,2024.1.5,None,2024-10-07 19h59.06.540364 +0530,
105,0,105,0,190.32131769973785,,,,,,,,,,,,190.27538219979033,10,0.03357760002836585,190.32131769973785,190.32131769973785,194.51839410001412,[0.12369791666666667],[-0.15234375],[1],[0],[0],[4.242538100108504],['target'],,,,A1,001,2024-10-07_19h58.30.327,untitled,2024.1.5,None,2024-10-07 19h59.06.540364 +0530,
106,0,106,0,194.54502649977803,,,,,,,,,,,,194.52141769975424,5,0.016115000005811453,194.54502649977803,194.54502649977803,196.26683609979227,[-0.40234375],[-0.12760416666666666],[1],[0],[0],[1.7449491997249424],['target'],,,,A1,001,2024-10-07_19h58.30.327,untitled,2024.1.5,None,2024-10-07 19h59.06.540364 +0530,
107,0,107,0,196.3104002000764,,,,,,,,,,,,196.26972820004448,10,0.029982599895447493,196.3104002000764,196.3104002000764,197.84845690010116,[0.037760416666666664],[0.2864583333333333],[1],[0],[0],[1.5781560000032187],['target'],,,,A1,001,2024-10-07_19h58.30.327,untitled,2024.1.5,None,2024-10-07 19h59.06.540364 +0530,
108,0,108,0,197.89214950008318,,,,,,,,,,,,197.85133969970047,10,0.02924890024587512,197.89214950008318,197.89214950008318,199.87931380001828,[0.5],[-0.18098958333333334],[1],[0],[0],[2.02748000016436],['target'],,,,A1,001,2024-10-07_19h58.30.327,untitled,2024.1.5,None,2024-10-07 19h59.06.540364 +0530,
109,0,109,0,199.92357609979808,,,,,,,,,,,,199.88219869975,10,0.030594900250434875,199.92357609979808,199.92357609979808,202.02745490008965,[-0.13802083333333334],[-0.421875],[1],[0],[0],[2.144831500016153],['target'],,,,A1,001,2024-10-07_19h58.30.327,untitled,2024.1.5,None,2024-10-07 19h59.06.540364 +0530,
110,0,110,0,202.0532594998367,,,,,,,,,,,,202.030343899969,5,0.015266700182110071,202.0532594998367,202.0532594998367,203.47629590006545,[0.08463541666666667],[-0.3411458333333333],[1],[0],[0],[1.4455057000741363],['target'],,,,A1,001,2024-10-07_19h58.30.327,untitled,2024.1.5,None,2024-10-07 19h59.06.540364 +0530,
111,0,111,0,203.52114140009508,,,,,,,,,,,,203.47934339987114,10,0.030489900149405003,203.52114140009508,203.52114140009508,205.35734719969332,[-0.2708333333333333],[-0.28515625],[1],[0],[0],[1.8775789998471737],['target'],,,,A1,001,2024-10-07_19h58.30.327,untitled,2024.1.5,None,2024-10-07 19h59.06.540364 +0530,
112,0,112,0,205.40061029978096,,,,,,,,,,,,205.36045589996502,10,0.029560899827629328,205.40061029978096,205.40061029978096,206.6564619001001,[-0.14192708333333334],[0.028645833333333332],[1],[0],[0],[1.295608399901539],['target'],,,,A1,001,2024-10-07_19h58.30.327,untitled,2024.1.5,None,2024-10-07 19h59.06.540364 +0530,
113,0,113,0,206.69941759994254,,,,,,,,,,,,206.65938349999487,10,0.02927220007404685,206.69941759994254,206.69941759994254,208.7207653997466,[0.2760416666666667],[-0.3658854166666667],[1],[0],[0],[2.060911300126463],['target'],,,,A1,001,2024-10-07_19h58.30.327,untitled,2024.1.5,None,2024-10-07 19h59.06.540364 +0530,
114,0,114,0,208.7642645998858,,,,,,,,,,,,208.72366550005972,10,0.029520099982619286,208.7642645998858,208.7642645998858,210.0703288000077,[0.009114583333333334],[-0.28125],[1],[0],[0],[1.3462131000123918],['target'],,,,A1,001,2024-10-07_19h58.30.327,untitled,2024.1.5,None,2024-10-07 19h59.06.540364 +0530,
115,0,115,0,210.1295369998552,,,,,,,,,,,,210.07326239999384,10,0.03968050004914403,210.1295369998552,210.1295369998552,212.5007666000165,[-0.171875],[-0.3307291666666667],[1],[0],[0],[2.427111899945885],['target'],,,,A1,001,2024-10-07_19h58.30.327,untitled,2024.1.5,None,2024-10-07 19h59.06.540364 +0530,
116,0,116,0,212.52680539991707,,,,,,,,,,,,212.50374329974875,5,0.015638400334864855,212.52680539991707,212.52680539991707,214.2996755996719,[0.4700520833333333],[-0.4114583333333333],[1],[0],[0],[1.7953495001420379],['target'],,,,A1,001,2024-10-07_19h58.30.327,untitled,2024.1.5,None,2024-10-07 19h59.06.540364 +0530,
117,0,117,0,214.3432926996611,,,,,,,,,,,,214.30256509967148,10,0.02903909981250763,214.3432926996611,214.3432926996611,215.7308688997291,[0.359375],[0.053385416666666664],[1],[0],[0],[1.4278620998375118],['target'],,,,A1,001,2024-10-07_19h58.30.327,untitled,2024.1.5,None,2024-10-07 19h59.06.540364 +0530,
118,0,118,0,215.77356689982116,,,,,,,,,,,,215.73380979988724,10,0.028741899877786636,215.77356689982116,215.77356689982116,217.14595989976078,[0.24609375],[-0.3372395833333333],[1],[0],[0],[1.411600399762392],['target'],,,,A1,001,2024-10-07_19h58.30.327,untitled,2024.1.5,None,2024-10-07 19h59.06.540364 +0530,
119,0,119,0,217.21270609972998,,,,,,,,,,,,217.1490893997252,10,0.0289920000359416,217.21270609972998,217.21270609972998,218.578949699644,[0.2708333333333333],[0.006510416666666667],[1],[0],[0],[1.4293869999237359],['target'],,,,A1,001,2024-10-07_19h58.30.327,untitled,2024.1.5,None,2024-10-07 19h59.06.540364 +0530,
120,0,120,0,218.64507099986076,,,,,,,,,,,,218.58181999996305,10,0.052024600096046925,218.64507099986076,218.64507099986076,219.7432122998871,[0.4348958333333333],[0.059895833333333336],[1],[0],[0],[1.1609893003478646],['target'],,,,A1,001,2024-10-07_19h58.30.327,untitled,2024.1.5,None,2024-10-07 19h59.06.540364 +0530,
121,0,121,0,219.769163900055,,,,,,,,,,,,219.74614479998127,5,0.015622700098901987,219.769163900055,219.769163900055,221.34157579997554,[-0.4140625],[0.06380208333333333],[1],[0],[0],[1.5950748999603093],['target'],,,,A1,001,2024-10-07_19h58.30.327,untitled,2024.1.5,None,2024-10-07 19h59.06.540364 +0530,
122,0,122,0,221.36836549965665,,,,,,,,,,,,221.3444817001,5,0.016238300129771233,221.36836549965665,221.36836549965665,222.94031059974805,[0.036458333333333336],[0.0013020833333333333],[1],[0],[0],[1.59541040007025],['target'],,,,A1,001,2024-10-07_19h58.30.327,untitled,2024.1.5,None,2024-10-07 19h59.06.540364 +0530,
123,0,123,0,222.99901890009642,,,,,,,,,,,,222.94321909965947,5,0.04887450020760298,222.99901890009642,222.99901890009642,224.13910469971597,[0.23177083333333334],[0.18359375],[1],[0],[0],[1.1954006999731064],['target'],,,,A1,001,2024-10-07_19h58.30.327,untitled,2024.1.5,None,2024-10-07 19h59.06.540364 +0530,
124,0,124,0,224.18223309982568,,,,,,,,,,,,224.14197609992698,10,0.029321699868887663,224.18223309982568,224.18223309982568,225.47063639992848,[0.09244791666666667],[0.44921875],[1],[0],[0],[1.3282192000187933],['target'],,,,A1,001,2024-10-07_19h58.30.327,untitled,2024.1.5,None,2024-10-07 19h59.06.540364 +0530,
125,0,125,0,225.49748039990664,,,,,,,,,,,,225.47364589991048,5,0.015771999955177307,225.49748039990664,225.49748039990664,227.02047579968348,[-0.13020833333333334],[-0.2877604166666667],[1],[0],[0],[1.5464156004600227],['target'],,,,A1,001,2024-10-07_19h58.30.327,untitled,2024.1.5,None,2024-10-07 19h59.06.540364 +0530,
126,0,126,0,227.06431249994785,,,,,,,,,,,,227.0234449999407,10,0.029958699829876423,227.06431249994785,227.06431249994785,229.98314679972827,[0.3880208333333333],[0.4856770833333333],[1],[0],[0],[2.9592253998853266],['target'],,,,A1,001,2024-10-07_19h58.30.327,untitled,2024.1.5,None,2024-10-07 19h59.06.540364 +0530,
127,0,127,0,230.00837889965624,,,,,,,,,,,,229.98605760000646,5,0.015031300019472837,230.00837889965624,230.00837889965624,231.38208719994873,[-0.1796875],[-0.3307291666666667],[1],[0],[0],[1.395614099688828],['target'],,,,A1,001,2024-10-07_19h58.30.327,untitled,2024.1.5,None,2024-10-07 19h59.06.540364 +0530,
128,0,128,0,231.4257912999019,,,,,,,,,,,,231.38498639967293,10,0.029868100304156542,231.4257912999019,231.4257912999019,232.76449469989166,[0.30859375],[0.3528645833333333],[1],[0],[0],[1.3790827998891473],['target'],,,,A1,001,2024-10-07_19h58.30.327,untitled,2024.1.5,None,2024-10-07 19h59.06.540364 +0530,
129,0,129,0,232.79065570002422,,,,,,,,,,,,232.7674556998536,5,0.015881699975579977,232.79065570002422,232.79065570002422,234.36250159982592,[-0.028645833333333332],[0.028645833333333332],[1],[0],[0],[1.5945210000500083],[],,,,A1,001,2024-10-07_19h58.30.327,untitled,2024.1.5,None,2024-10-07 19h59.06.540364 +0530,
130,0,130,0,234.38750190008432,,,,,,,,,,,,234.36543669970706,5,0.014889900106936693,234.38750190008432,234.38750190008432,236.29445259971544,[-0.022135416666666668],[-0.4231770833333333],[1],[0],[0],[1.9285554001107812],['target'],,,,A1,001,2024-10-07_19h58.30.327,untitled,2024.1.5,None,2024-10-07 19h59.06.540364 +0530,
131,0,131,0,236.33841949980706,,,,,,,,,,,,236.29730820003897,10,0.02996889967471361,236.33841949980706,236.33841949980706,237.47637540008873,[0.08723958333333333],[-0.16927083333333334],[1],[0],[0],[1.178533500060439],['target'],,,,A1,001,2024-10-07_19h58.30.327,untitled,2024.1.5,None,2024-10-07 19h59.06.540364 +0530,
132,0,132,0,237.50224300008267,,,,,,,,,,,,237.4792303997092,5,0.01570759993046522,237.50224300008267,237.50224300008267,238.65911010000855,[-0.2838541666666667],[-0.09765625],[1],[0],[0],[1.1793097998015583],['target'],,,,A1,001,2024-10-07_19h58.30.327,untitled,2024.1.5,None,2024-10-07 19h59.06.540364 +0530,
133,0,133,0,238.70282660005614,,,,,,,,,,,,238.6620213999413,10,0.030102900229394436,238.70282660005614,238.70282660005614,240.35653789993376,[0.3671875],[-0.3111979166666667],[1],[0],[0],[1.6940611000172794],['target'],,,,A1,001,2024-10-07_19h58.30.327,untitled,2024.1.5,None,2024-10-07 19h59.06.540364 +0530,
134,0,134,0,240.38290550000966,,,,,,,,,,,,240.36004409985617,5,0.015580900013446808,240.38290550000966,240.38290550000966,242.00572509970516,[-0.4244791666666667],[-0.3177083333333333],[1],[0],[0],[1.6451904000714421],['target'],,,,A1,001,2024-10-07_19h58.30.327,untitled,2024.1.5,None,2024-10-07 19h59.06.540364 +0530,
135,0,135,0,242.04511300008744,,,,,,,,,,,,242.01030339999124,5,0.02466969983652234,242.04511300008744,242.04511300008744,243.38666020007804,[-0.17057291666666666],[0.3385416666666667],[1],[0],[0],[1.375939799938351],['target'],,,,A1,001,2024-10-07_19h58.30.327,untitled,2024.1.5,None,2024-10-07 19h59.06.540364 +0530,
136,0,136,0,243.43111799983308,,,,,,,,,,,,243.3895982997492,10,0.030624500010162592,243.43111799983308,243.43111799983308,244.43578139971942,[-0.2825520833333333],[0.18229166666666666],[1],[0],[0],[1.0456405999138951],['target'],,,,A1,001,2024-10-07_19h58.30.327,untitled,2024.1.5,None,2024-10-07 19h59.06.540364 +0530,
137,0,137,0,244.46182530000806,,,,,,,,,,,,244.43872689967975,5,0.015379899647086859,244.46182530000806,244.46182530000806,246.48437019996345,[-0.4544270833333333],[-0.4036458333333333],[1],[0],[0],[2.0450606998056173],['target'],,,,A1,001,2024-10-07_19h58.30.327,untitled,2024.1.5,None,2024-10-07 19h59.06.540364 +0530,
138,0,138,0,246.51050970004871,,,,,,,,,,,,246.48722979985178,5,0.015650399960577488,246.51050970004871,246.51050970004871,248.03255639970303,[0.22786458333333334],[0.4036458333333333],[1],[0],[0],[1.5448981998488307],['target'],,,,A1,001,2024-10-07_19h58.30.327,untitled,2024.1.5,None,2024-10-07 19h59.06.540364 +0530,
139,0,139,0,248.0586505997926,,,,,,,,,,,,248.03550329990685,5,0.01563739962875843,248.0586505997926,248.0586505997926,249.69736659992486,[-0.4283854166666667],[-0.08463541666666667],[1],[0],[0],[1.6614262000657618],['target'],,,,A1,001,2024-10-07_19h58.30.327,untitled,2024.1.5,None,2024-10-07 19h59.06.540364 +0530,
140,0,140,0,249.7225089999847,,,,,,,,,,,,249.7002951996401,5,0.014904099982231855,249.7225089999847,249.7225089999847,251.21266709966585,[0.13671875],[-0.014322916666666666],[1],[0],[0],[1.511950499843806],['target'],,,,A1,001,2024-10-07_19h58.30.327,untitled,2024.1.5,None,2024-10-07 19h59.06.540364 +0530,
141,0,141,0,251.23892659973353,,,,,,,,,,,,251.21574259968475,5,0.015501399990171194,251.23892659973353,251.23892659973353,252.49506859993562,[0.07421875],[0.24348958333333334],[1],[0],[0],[1.2788060996681452],['target'],,,,A1,001,2024-10-07_19h58.30.327,untitled,2024.1.5,None,2024-10-07 19h59.06.540364 +0530,
142,0,142,0,252.52138119982556,,,,,,,,,,,,252.49863759987056,5,0.01620930014178157,252.52138119982556,252.52138119982556,253.72650179965422,[0.1484375],[0.3255208333333333],[1],[0],[0],[1.2273015999235213],['target'],,,,A1,001,2024-10-07_19h58.30.327,untitled,2024.1.5,None,2024-10-07 19h59.06.540364 +0530,
143,0,143,0,253.75111859990284,,,,,,,,,,,,253.72937949979678,5,0.014756800141185522,253.75111859990284,253.75111859990284,255.42564280005172,[-0.45703125],[0.17708333333333334],[1],[0],[0],[1.6958401999436319],['target'],,,,A1,001,2024-10-07_19h58.30.327,untitled,2024.1.5,None,2024-10-07 19h59.06.540364 +0530,
144,0,144,0,255.4684016997926,,,,,,,,,,,,255.42849519988522,10,0.028746900148689747,255.4684016997926,255.4684016997926,256.5411362000741,[-0.3255208333333333],[0.2578125],[1],[0],[0],[1.1122079002670944],['target'],,,,A1,001,2024-10-07_19h58.30.327,untitled,2024.1.5,None,2024-10-07 19h59.06.540364 +0530,
145,0,145,0,256.5674534998834,,,,,,,,,,,,256.54408759996295,5,0.01623160019516945,256.5674534998834,256.5674534998834,258.2892248998396,[-0.049479166666666664],[-0.2591145833333333],[1],[0],[0],[1.7445947998203337],['target'],,,,A1,001,2024-10-07_19h58.30.327,untitled,2024.1.5,None,2024-10-07 19h59.06.540364 +0530,
146,0,146,0,258.335608900059,,,,,,,,,,,,258.2920587998815,10,0.030772299971431494,258.335608900059,258.335608900059,262.5515089998953,[-0.0546875],[-0.009114583333333334],[1],[0],[0],[4.259054699912667],['target'],,,,A1,001,2024-10-07_19h58.30.327,untitled,2024.1.5,None,2024-10-07 19h59.06.540364 +0530,
147,0,147,0,262.5962173999287,,,,,,,,,,,,262.55454319994897,10,0.029895900283008814,262.5962173999287,262.5962173999287,264.632671199739,[-0.4908854166666667],[0.27734375],[1],[0],[0],[2.077714500017464],['target'],,,,A1,001,2024-10-07_19h58.30.327,untitled,2024.1.5,None,2024-10-07 19h59.06.540364 +0530,
148,0,148,0,264.677140600048,,,,,,,,,,,,264.6355741000734,10,0.02953790035098791,264.677140600048,264.677140600048,266.248147000093,[-0.3841145833333333],[-0.3307291666666667],[1],[0],[0],[1.6120922998525202],['target'],,,,A1,001,2024-10-07_19h58.30.327,untitled,2024.1.5,None,2024-10-07 19h59.06.540364 +0530,
149,0,149,0,266.2740485998802,,,,,,,,,,,,266.25111469998956,5,0.015153100248426199,266.2740485998802,266.2740485998802,267.9299506996758,[0.4466145833333333],[-0.052083333333333336],[1],[0],[0],[1.6783894998952746],['target'],,,,A1,001,2024-10-07_19h58.30.327,untitled,2024.1.5,None,2024-10-07 19h59.06.540364 +0530,
150,0,150,0,267.9556770999916,,,,,,,,,,,,267.93280959967524,5,0.015101099852472544,267.9556770999916,267.9556770999916,269.44517209986225,[-0.08072916666666667],[0.25],[1],[0],[0],[1.5119195999577641],['target'],,,,A1,001,2024-10-07_19h58.30.327,untitled,2024.1.5,None,2024-10-07 19h59.06.540364 +0530,
151,0,151,0,269.48800499970093,,,,,,,,,,,,269.44801250007004,10,0.02929180022329092,269.48800499970093,269.48800499970093,272.642227999866,[-0.22786458333333334],[-0.3619791666666667],[1],[0],[0],[3.193779199849814],['target'],,,,A1,001,2024-10-07_19h58.30.327,untitled,2024.1.5,None,2024-10-07 19h59.06.540364 +0530,
152,0,152,0,272.68444209964946,,,,,,,,,,,,272.64509849995375,10,0.028758300002664328,272.68444209964946,272.68444209964946,273.89037390006706,[0.21223958333333334],[0.07942708333333333],[1],[0],[0],[1.2448538998141885],['target'],,,,A1,001,2024-10-07_19h58.30.327,untitled,2024.1.5,None,2024-10-07 19h59.06.540364 +0530,
153,0,153,0,273.93320159986615,,,,,,,,,,,,273.8932527001016,10,0.029212300200015306,273.93320159986615,273.93320159986615,275.57250820007175,[0.09375],[-0.14192708333333334],[1],[0],[0],[1.6786899999715388],['target'],,,,A1,001,2024-10-07_19h58.30.327,untitled,2024.1.5,None,2024-10-07 19h59.06.540364 +0530,
154,0,154,0,275.6161827999167,,,,,,,,,,,,275.57539679994807,10,0.028588599991053343,275.6161827999167,275.6161827999167,277.0537280999124,[-0.05859375],[-0.005208333333333333],[1],[0],[0],[1.477889799978584],['target'],,,,A1,001,2024-10-07_19h58.30.327,untitled,2024.1.5,None,2024-10-07 19h59.06.540364 +0530,
155,0,155,0,277.079412299674,,,,,,,,,,,,277.0568340998143,5,0.015610499773174524,277.079412299674,277.079412299674,278.31926399981603,[0.006510416666666667],[0.18880208333333334],[1],[0],[0],[1.261970799881965],['target'],,,,A1,001,2024-10-07_19h58.30.327,untitled,2024.1.5,None,2024-10-07 19h59.06.540364 +0530,
156,0,156,0,278.3447110997513,,,,,,,,,,,,278.32217309996486,5,0.0155005999840796,278.3447110997513,278.3447110997513,279.86932019982487,[-0.0026041666666666665],[-0.2591145833333333],[1],[0],[0],[1.5466734003275633],['target'],,,,A1,001,2024-10-07_19h58.30.327,untitled,2024.1.5,None,2024-10-07 19h59.06.540364 +0530,
157,0,157,0,279.91220719972625,,,,,,,,,,,,279.8726830999367,10,0.02853519981727004,279.91220719972625,279.91220719972625,281.26614149985835,[0.19661458333333334],[-0.022135416666666668],[1],[0],[0],[1.393025599885732],['target'],,,,A1,001,2024-10-07_19h58.30.327,untitled,2024.1.5,None,2024-10-07 19h59.06.540364 +0530,
158,0,158,0,281.3098168000579,,,,,,,,,,,,281.26931349979714,10,0.029658399987965822,281.3098168000579,281.3098168000579,282.4984244997613,[0.46484375],[-0.009114583333333334],[1],[0],[0],[1.2286784001626074],['target'],,,,A1,001,2024-10-07_19h58.30.327,untitled,2024.1.5,None,2024-10-07 19h59.06.540364 +0530,
159,0,159,0,282.5239579998888,,,,,,,,,,,,282.5013838997111,5,0.015329099725931883,282.5239579998888,282.5239579998888,284.16393820010126,[-0.1328125],[-0.2981770833333333],[1],[0],[0],[1.662043099757284],['target'],,,,A1,001,2024-10-07_19h58.30.327,untitled,2024.1.5,None,2024-10-07 19h59.06.540364 +0530,
160,0,160,0,284.1889531998895,,,,,,,,,,,,284.16684769978747,5,0.014811600092798471,284.1889531998895,284.1889531998895,285.21314449980855,[-0.1015625],[-0.0703125],[1],[0],[0],[1.0458483998663723],['target'],,,,A1,001,2024-10-07_19h58.30.327,untitled,2024.1.5,None,2024-10-07 19h59.06.540364 +0530,
161,0,161,0,285.23817820008844,,,,,,,,,,,,285.2160080000758,5,0.015094600152224302,285.23817820008844,285.23817820008844,286.87836640002206,[-0.3216145833333333],[0.23958333333333334],[1],[0],[0],[1.6619176999665797],['target'],,,,A1,001,2024-10-07_19h58.30.327,untitled,2024.1.5,None,2024-10-07 19h59.06.540364 +0530,
162,0,162,0,286.9041267000139,,,,,,,,,,,,286.88130129966885,5,0.015837599989026785,286.9041267000139,286.9041267000139,287.9271423998289,[-0.2565104166666667],[-0.029947916666666668],[1],[0],[0],[1.0453849998302758],['target'],,,,A1,001,2024-10-07_19h58.30.327,untitled,2024.1.5,None,2024-10-07 19h59.06.540364 +0530,
163,0,163,0,287.9695464996621,,,,,,,,,,,,287.9299880997278,10,0.02869610022753477,287.9695464996621,287.9695464996621,289.65904420008883,[-0.059895833333333336],[0.4075520833333333],[1],[0],[0],[1.728651000186801],['target'],,,,A1,001,2024-10-07_19h58.30.327,untitled,2024.1.5,None,2024-10-07 19h59.06.540364 +0530,
164,0,164,0,289.6846580998972,,,,,,,,,,,,289.66211130004376,5,0.015548299998044968,289.6846580998972,289.6846580998972,291.0899954000488,[-0.17578125],[0.016927083333333332],[1],[0],[0],[1.4274561000056565],['target'],,,,A1,001,2024-10-07_19h58.30.327,untitled,2024.1.5,None,2024-10-07 19h59.06.540364 +0530,
165,0,165,0,291.11584870005026,,,,,,,,,,,,291.09298219997436,5,0.015688400249928236,291.11584870005026,291.11584870005026,292.7054146998562,[0.24348958333333334],[0.2265625],[1],[0],[0],[1.6119368998333812],['target'],,,,A1,001,2024-10-07_19h58.30.327,untitled,2024.1.5,None,2024-10-07 19h59.06.540364 +0530,
166,0,166,0,292.73097599996254,,,,,,,,,,,,292.70839329995215,5,0.01539899967610836,292.73097599996254,292.73097599996254,294.0547507996671,[0.2916666666666667],[-0.125],[1],[0],[0],[1.3458087001927197],['target'],,,,A1,001,2024-10-07_19h58.30.327,untitled,2024.1.5,None,2024-10-07 19h59.06.540364 +0530,
167,0,167,0,294.0801964998245,,,,,,,,,,,,294.05793929984793,5,0.015356299933046103,294.0801964998245,294.0801964998245,295.6019274997525,[0.14322916666666666],[0.3125],[1],[0],[0],[1.5435514999553561],['target'],,,,A1,001,2024-10-07_19h58.30.327,untitled,2024.1.5,None,2024-10-07 19h59.06.540364 +0530,
168,0,168,0,295.62683840002865,,,,,,,,,,,,295.6048192996532,5,0.014873699750751257,295.62683840002865,295.62683840002865,296.9679642999545,[-0.3203125],[0.12760416666666666],[1],[0],[0],[1.3626995999366045],['target'],,,,A1,001,2024-10-07_19h58.30.327,untitled,2024.1.5,None,2024-10-07 19h59.06.540364 +0530,
169,0,169,0,296.99344259966165,,,,,,,,,,,,296.9709215997718,5,0.015352199785411358,296.99344259966165,296.99344259966165,298.7488174000755,[-0.4596354166666667],[-0.41796875],[1],[0],[0],[1.777494200039655],['target'],,,,A1,001,2024-10-07_19h58.30.327,untitled,2024.1.5,None,2024-10-07 19h59.06.540364 +0530,
170,0,170,0,298.7915233997628,,,,,,,,,,,,298.7517856997438,10,0.029552100226283073,298.7915233997628,298.7915233997628,300.29821529984474,[0.1953125],[-0.3372395833333333],[1],[0],[0],[1.546004300005734],['target'],,,,A1,001,2024-10-07_19h58.30.327,untitled,2024.1.5,None,2024-10-07 19h59.06.540364 +0530,
171,0,171,0,300.3250274998136,,,,,,,,,,,,300.30111479992047,5,0.015621500089764595,300.3250274998136,300.3250274998136,302.1297793998383,[0.4309895833333333],[0.3541666666666667],[1],[0],[0],[1.8282205001451075],['target'],,,,A1,001,2024-10-07_19h58.30.327,untitled,2024.1.5,None,2024-10-07 19h59.06.540364 +0530,
172,0,172,0,302.1551275998354,,,,,,,,,,,,302.132687299978,5,0.01561739994212985,302.1551275998354,302.1551275998354,304.37677569966763,[0.3294270833333333],[0.059895833333333336],[1],[0],[0],[2.2436855998821557],['target'],,,,A1,001,2024-10-07_19h58.30.327,untitled,2024.1.5,None,2024-10-07 19h59.06.540364 +0530,
173,0,173,0,304.4529953999445,,,,,,,,,,,,304.37977360002697,10,0.06071599991992116,304.4529953999445,304.4529953999445,305.8594232997857,[0.06380208333333333],[-0.23828125],[1],[0],[0],[1.4791941000148654],['target'],,,,A1,001,2024-10-07_19h58.30.327,untitled,2024.1.5,None,2024-10-07 19h59.06.540364 +0530,
174,0,174,0,305.88643939979374,,,,,,,,,,,,305.86251970008016,5,0.014842599630355835,305.88643939979374,305.88643939979374,307.0918135000393,[-0.3515625],[-0.265625],[1],[0],[0],[1.2288307002745569],['target'],,,,A1,001,2024-10-07_19h58.30.327,untitled,2024.1.5,None,2024-10-07 19h59.06.540364 +0530,
175,0,175,0,307.1193220997229,,,,,,,,,,,,307.0947493999265,5,0.01593680027872324,307.1193220997229,307.1193220997229,308.5731462999247,[0.2526041666666667],[-0.4453125],[1],[0],[0],[1.4779984997585416],['target'],,,,A1,001,2024-10-07_19h58.30.327,untitled,2024.1.5,None,2024-10-07 19h59.06.540364 +0530,
176,0,176,0,308.6008091997355,,,,,,,,,,,,308.57609169976786,5,0.01692780014127493,308.6008091997355,308.6008091997355,310.17153029982,[-0.2838541666666667],[-0.16276041666666666],[1],[0],[0],[1.5950261997058988],['target'],,,,A1,001,2024-10-07_19h58.30.327,untitled,2024.1.5,None,2024-10-07 19h59.06.540364 +0530,
177,0,177,0,310.19802499981597,,,,,,,,,,,,310.17455270001665,5,0.015056000091135502,310.19802499981597,310.19802499981597,312.43656859965995,[-0.23307291666666666],[0.453125],[1],[0],[0],[2.2615466001443565],['target'],,,,A1,001,2024-10-07_19h58.30.327,untitled,2024.1.5,None,2024-10-07 19h59.06.540364 +0530,
178,0,178,0,312.46363070001826,,,,,,,,,,,,312.4395339996554,5,0.01550070010125637,312.46363070001826,312.46363070001826,314.1350519997068,[0.4765625],[0.4817708333333333],[1],[0],[0],[1.6950198002159595],['target'],,,,A1,001,2024-10-07_19h58.30.327,untitled,2024.1.5,None,2024-10-07 19h59.06.540364 +0530,
179,0,179,0,314.1627821000293,,,,,,,,,,,,314.13798289978877,5,0.015531700104475021,314.1627821000293,314.1627821000293,316.29928579973057,[-0.2981770833333333],[0.49609375],[1],[0],[0],[2.160884200129658],['target'],,,,A1,001,2024-10-07_19h58.30.327,untitled,2024.1.5,None,2024-10-07 19h59.06.540364 +0530,
180,0,180,0,316.3823595996946,,,,,,,,,,,,316.30221029976383,10,0.06567460019141436,316.3823595996946,316.3823595996946,318.21348090004176,[0.3658854166666667],[-0.2591145833333333],[1],[0],[0],[1.9107945999130607],['target'],,,,A1,001,2024-10-07_19h58.30.327,untitled,2024.1.5,None,2024-10-07 19h59.06.540364 +0530,
181,0,181,0,318.2589795999229,,,,,,,,,,,,318.21649219980463,10,0.029514200054109097,318.2589795999229,318.2589795999229,320.46091479994357,[0.3372395833333333],[-0.4322916666666667],[1],[0],[0],[2.24404380004853],['target'],,,,A1,001,2024-10-07_19h58.30.327,untitled,2024.1.5,None,2024-10-07 19h59.06.540364 +0530,
182,0,182,0,320.5059766997583,,,,,,,,,,,,320.46384229976684,10,0.031018400099128485,320.5059766997583,320.5059766997583,322.6424223999493,[0.12239583333333333],[0.14453125],[1],[0],[0],[2.1781505001708865],['target'],,,,A1,001,2024-10-07_19h58.30.327,untitled,2024.1.5,None,2024-10-07 19h59.06.540364 +0530,
183,0,183,0,322.68522999994457,,,,,,,,,,,,322.64541079988703,10,0.029525000136345625,322.68522999994457,322.68522999994457,324.10782819986343,[-0.3138020833333333],[0.3567708333333333],[1],[0],[0],[1.4620189000852406],['target'],,,,A1,001,2024-10-07_19h58.30.327,untitled,2024.1.5,None,2024-10-07 19h59.06.540364 +0530,
184,0,184,0,324.1511562997475,,,,,,,,,,,,324.11076879967004,10,0.02966040000319481,324.1511562997475,324.1511562997475,325.6563303996809,[-0.059895833333333336],[0.10026041666666667],[1],[0],[0],[1.5451279003173113],['target'],,,,A1,001,2024-10-07_19h58.30.327,untitled,2024.1.5,None,2024-10-07 19h59.06.540364 +0530,
185,0,185,0,325.68290050001815,,,,,,,,,,,,325.6592713999562,5,0.015153199899941683,325.68290050001815,325.68290050001815,326.8725931998342,[-0.24869791666666666],[-0.10807291666666667],[1],[0],[0],[1.2127963001839817],['target'],,,,A1,001,2024-10-07_19h58.30.327,untitled,2024.1.5,None,2024-10-07 19h59.06.540364 +0530,
186,0,186,0,326.9167390000075,,,,,,,,,,,,326.87544839968905,10,0.0295758000575006,326.9167390000075,326.9167390000075,328.26018689991906,[0.1171875],[0.1484375],[1],[0],[0],[1.3843912002630532],['target'],,,,A1,001,2024-10-07_19h58.30.327,untitled,2024.1.5,None,2024-10-07 19h59.06.540364 +0530,
187,0,187,0,328.28571929968894,,,,,,,,,,,,328.2630803999491,5,0.015256700105965137,328.28571929968894,328.28571929968894,329.3864766997285,[0.125],[-0.3346354166666667],[1],[0],[0],[1.1228299997746944],['target'],,,,A1,001,2024-10-07_19h58.30.327,untitled,2024.1.5,None,2024-10-07 19h59.06.540364 +0530,
188,0,188,0,329.41171559970826,,,,,,,,,,,,329.3895394997671,5,0.014944500289857388,329.41171559970826,329.41171559970826,330.58461889997125,[-0.3932291666666667],[-0.21354166666666666],[1],[0],[0],[1.1945406999439],['target'],,,,A1,001,2024-10-07_19h58.30.327,untitled,2024.1.5,None,2024-10-07 19h59.06.540364 +0530,
189,0,189,0,330.62903849966824,,,,,,,,,,,,330.5875658998266,10,0.028648899868130684,330.62903849966824,330.62903849966824,332.4329726998694,[-0.24088541666666666],[0.29296875],[1],[0],[0],[1.8449774999171495],['target'],,,,A1,001,2024-10-07_19h58.30.327,untitled,2024.1.5,None,2024-10-07 19h59.06.540364 +0530,
190,0,190,0,332.47618100000545,,,,,,,,,,,,332.4358898997307,10,0.029267400037497282,332.47618100000545,332.47618100000545,333.7652826998383,[-0.4361979166666667],[0.03515625],[1],[0],[0],[1.3289886000566185],['target'],,,,A1,001,2024-10-07_19h58.30.327,untitled,2024.1.5,None,2024-10-07 19h59.06.540364 +0530,
191,0,191,0,333.8094893996604,,,,,,,,,,,,333.7681694999337,10,0.0287194000557065,333.8094893996604,333.8094893996604,335.3643323997967,[-0.3489583333333333],[-0.2708333333333333],[1],[0],[0],[1.5956296999938786],['target'],,,,A1,001,2024-10-07_19h58.30.327,untitled,2024.1.5,None,2024-10-07 19h59.06.540364 +0530,
192,0,192,0,335.4082742999308,,,,,,,,,,,,335.36736949998885,10,0.028964899946004152,335.4082742999308,335.4082742999308,336.76152969989926,[0.022135416666666668],[-0.3463541666666667],[1],[0],[0],[1.3937353999353945],['target'],,,,A1,001,2024-10-07_19h58.30.327,untitled,2024.1.5,None,2024-10-07 19h59.06.540364 +0530,
193,0,193,0,336.8045354997739,,,,,,,,,,,,336.764544100035,10,0.029023199807852507,336.8045354997739,336.8045354997739,338.5432124999352,[-0.4765625],[-0.2864583333333333],[1],[0],[0],[1.7783265002071857],['target'],,,,A1,001,2024-10-07_19h58.30.327,untitled,2024.1.5,None,2024-10-07 19h59.06.540364 +0530,
194,0,194,0,338.58801469998434,,,,,,,,,,,,338.546116899699,10,0.029660699889063835,338.58801469998434,338.58801469998434,339.7268324997276,[0.12630208333333334],[-0.024739583333333332],[1],[0],[0],[1.1801354996860027],['target'],,,,A1,001,2024-10-07_19h58.30.327,untitled,2024.1.5,None,2024-10-07 19h59.06.540364 +0530,
195,0,195,0,339.7711835997179,,,,,,,,,,,,339.7297084997408,10,0.029144400265067816,339.7711835997179,339.7711835997179,341.4076624000445,[-0.3671875],[0.38671875],[1],[0],[0],[1.6774925999343395],['target'],,,,A1,001,2024-10-07_19h58.30.327,untitled,2024.1.5,None,2024-10-07 19h59.06.540364 +0530,
196,0,196,0,341.4334645997733,,,,,,,,,,,,341.4105897997506,5,0.015664600301533937,341.4334645997733,341.4334645997733,343.5721996999346,[-0.4153645833333333],[-0.3971354166666667],[1],[0],[0],[2.1612463002093136],['target'],,,,A1,001,2024-10-07_19h58.30.327,untitled,2024.1.5,None,2024-10-07 19h59.06.540364 +0530,
197,0,197,0,343.5981267997995,,,,,,,,,,,,343.57509880000725,5,0.015600300393998623,343.5981267997995,343.5981267997995,344.8542688000016,[0.18880208333333334],[-0.23697916666666666],[1],[0],[0],[1.2787576001137495],['target'],,,,A1,001,2024-10-07_19h58.30.327,untitled,2024.1.5,None,2024-10-07 19h59.06.540364 +0530,
198,0,198,0,344.8978340998292,,,,,,,,,,,,344.85721320006996,10,0.029670599848031998,344.8978340998292,344.8978340998292,347.0361159997992,[0.10026041666666667],[0.3033854166666667],[1],[0],[0],[2.178354499861598],['target'],,,,A1,001,2024-10-07_19h58.30.327,untitled,2024.1.5,None,2024-10-07 19h59.06.540364 +0530,
199,0,199,0,347.0617702999152,,,,,,,,,,,,347.03901569964364,5,0.015708799939602613,347.0617702999152,347.0617702999152,348.4006765000522,[-0.044270833333333336],[0.033854166666666664],[1],[0],[0],[1.361225999891758],['target'],,,,A1,001,2024-10-07_19h58.30.327,untitled,2024.1.5,None,2024-10-07 19h59.06.540364 +0530,
,,,,,,,,,,,,,,,,,,,,,,,,,,,,,348.4030379001051,348.4160889000632,352.41316809970886,A1,001,2024-10-07_19h58.30.327,untitled,2024.1.5,None,2024-10-07 19h59.06.540364 +0530,
