trials.thisRepN,trials.thisTrialN,trials.thisN,trials.thisIndex,thisRow.t,notes,Hello.started,text_2.started,Hello.stopped,guidelines.started,guideline.started,key_resp.started,guidelines.stopped,key_resp.keys,key_resp.rt,key_resp.duration,trial.started,num_distr,mouse.started,polygon.started,target.started,trial.stopped,mouse.x,mouse.y,mouse.leftButton,mouse.midButton,mouse.rightButton,mouse.time,mouse.clicked_name,Thank_you.started,text_3.started,Thank_you.stopped,participant,session,date,expName,psychopyVersion,frameRate,expStart,
,,,,,,0.008949299808591604,0.021023999899625778,0.504832100123167,,,,,,,,,,,,,,,,,,,,,,,,A2,001,2024-10-07_20h11.13.283,untitled,2024.1.5,None,2024-10-07 20h11.23.586085 +0530,
,,,,,,,,,0.5049048000946641,0.5215472998097539,0.5215472998097539,14.210421700030565,space,13.656906799878925,None,,,,,,,,,,,,,,,,,A2,001,2024-10-07_20h11.13.283,untitled,2024.1.5,None,2024-10-07 20h11.23.586085 +0530,
0,0,0,0,14.272183400113136,,,,,,,,,,,,14.215567499864846,10,0.049990300089120865,14.272183400113136,14.272183400113136,16.021449599880725,[0.4791666666666667],[0.3020833333333333],[1],[0],[0],[1.805453599896282],['target'],,,,A2,001,2024-10-07_20h11.13.283,untitled,2024.1.5,None,2024-10-07 20h11.23.586085 +0530,
1,0,1,0,16.05000020004809,,,,,,,,,,,,16.02577569987625,5,0.01521009998396039,16.05000020004809,16.05000020004809,17.206110099796206,[-0.005208333333333333],[0.125],[1],[0],[0],[1.1798378000967205],['target'],,,,A2,001,2024-10-07_20h11.13.283,untitled,2024.1.5,None,2024-10-07 20h11.23.586085 +0530,
2,0,2,0,17.23111579986289,,,,,,,,,,,,17.20892080012709,5,0.015766000375151634,17.23111579986289,17.23111579986289,18.936311800032854,[0.45703125],[-0.46484375],[1],[0],[0],[1.7269990998320282],['target'],,,,A2,001,2024-10-07_20h11.13.283,untitled,2024.1.5,None,2024-10-07 20h11.23.586085 +0530,
3,0,3,0,18.961487399879843,,,,,,,,,,,,18.939247299917042,5,0.015519199892878532,18.961487399879843,18.961487399879843,21.051195399835706,[-0.36328125],[-0.2643229166666667],[1],[0],[0],[2.1114616002887487],['target'],,,,A2,001,2024-10-07_20h11.13.283,untitled,2024.1.5,None,2024-10-07 20h11.23.586085 +0530,
4,0,4,0,21.077085599768907,,,,,,,,,,,,21.05431709997356,5,0.016089700162410736,21.077085599768907,21.077085599768907,22.74996819999069,[-0.10677083333333333],[-0.2669270833333333],[1],[0],[0],[1.6952014002017677],['target'],,,,A2,001,2024-10-07_20h11.13.283,untitled,2024.1.5,None,2024-10-07 20h11.23.586085 +0530,
5,0,5,0,22.776050900109112,,,,,,,,,,,,22.75318909995258,5,0.016247100196778774,22.776050900109112,22.776050900109112,24.098263999912888,[0.234375],[0.044270833333333336],[1],[0],[0],[1.3445612001232803],['target'],,,,A2,001,2024-10-07_20h11.13.283,untitled,2024.1.5,None,2024-10-07 20h11.23.586085 +0530,
6,0,6,0,24.12351159984246,,,,,,,,,,,,24.101247400045395,5,0.01571690011769533,24.12351159984246,24.12351159984246,25.6302730999887,[-0.15234375],[-0.3203125],[1],[0],[0],[1.5284543996676803],['target'],,,,A2,001,2024-10-07_20h11.13.283,untitled,2024.1.5,None,2024-10-07 20h11.23.586085 +0530,
7,0,7,0,25.6731309001334,,,,,,,,,,,,25.633217600174248,10,0.02982989978045225,25.6731309001334,25.6731309001334,26.961643499787897,[0.3424479166666667],[0.16145833333333334],[1],[0],[0],[1.3280107998289168],['target'],,,,A2,001,2024-10-07_20h11.13.283,untitled,2024.1.5,None,2024-10-07 20h11.23.586085 +0530,
8,0,8,0,26.987490799743682,,,,,,,,,,,,26.96462929993868,5,0.01604699995368719,26.987490799743682,26.987490799743682,29.07682739989832,[-0.484375],[-0.3333333333333333],[1],[0],[0],[2.1117115998640656],['target'],,,,A2,001,2024-10-07_20h11.13.283,untitled,2024.1.5,None,2024-10-07 20h11.23.586085 +0530,
9,0,9,0,29.121359100099653,,,,,,,,,,,,29.079848799854517,10,0.03131540026515722,29.121359100099653,29.121359100099653,30.841254100203514,[-0.4622395833333333],[0.4231770833333333],[1],[0],[0],[1.7608209000900388],['target'],,,,A2,001,2024-10-07_20h11.13.283,untitled,2024.1.5,None,2024-10-07 20h11.23.586085 +0530,
10,0,10,0,30.866998800076544,,,,,,,,,,,,30.844154399819672,5,0.015656900126487017,30.866998800076544,30.866998800076544,32.12376549979672,[-0.2591145833333333],[0.24088541666666666],[1],[0],[0],[1.279182200320065],['target'],,,,A2,001,2024-10-07_20h11.13.283,untitled,2024.1.5,None,2024-10-07 20h11.23.586085 +0530,
11,0,11,0,32.16744050011039,,,,,,,,,,,,32.12676260014996,10,0.03060930036008358,32.16744050011039,32.16744050011039,33.50541940005496,[-0.22916666666666666],[0.0234375],[1],[0],[0],[1.378103299997747],['target'],,,,A2,001,2024-10-07_20h11.13.283,untitled,2024.1.5,None,2024-10-07 20h11.23.586085 +0530,
12,0,12,0,33.54894699994475,,,,,,,,,,,,33.50831840001047,10,0.030363199766725302,33.54894699994475,33.54894699994475,35.35359459975734,[0.2669270833333333],[0.43359375],[1],[0],[0],[1.8448658999986947],['target'],,,,A2,001,2024-10-07_20h11.13.283,untitled,2024.1.5,None,2024-10-07 20h11.23.586085 +0530,
13,0,13,0,35.378910299856216,,,,,,,,,,,,35.3566116001457,5,0.016146200243383646,35.378910299856216,35.378910299856216,36.91859500017017,[-0.2890625],[0.4609375],[1],[0],[0],[1.561558600049466],['target'],,,,A2,001,2024-10-07_20h11.13.283,untitled,2024.1.5,None,2024-10-07 20h11.23.586085 +0530,
14,0,14,0,36.96171939978376,,,,,,,,,,,,36.92150489985943,10,0.02975319977849722,36.96171939978376,36.96171939978376,38.43354499991983,[0.044270833333333336],[0.5],[1],[0],[0],[1.5116225997917354],['target'],,,,A2,001,2024-10-07_20h11.13.283,untitled,2024.1.5,None,2024-10-07 20h11.23.586085 +0530,
15,0,15,0,38.458724400028586,,,,,,,,,,,,38.43641219986603,5,0.01571360044181347,38.458724400028586,38.458724400028586,40.49880350008607,[0.3971354166666667],[-0.3294270833333333],[1],[0],[0],[2.061947099864483],['target'],,,,A2,001,2024-10-07_20h11.13.283,untitled,2024.1.5,None,2024-10-07 20h11.23.586085 +0530,
16,0,16,0,40.524132600054145,,,,,,,,,,,,40.50173840019852,5,0.015847899951040745,40.524132600054145,40.524132600054145,42.113872999791056,[-0.23697916666666666],[0.16145833333333334],[1],[0],[0],[1.6117134001106024],['target'],,,,A2,001,2024-10-07_20h11.13.283,untitled,2024.1.5,None,2024-10-07 20h11.23.586085 +0530,
17,0,17,0,42.15809539984912,,,,,,,,,,,,42.11691479990259,10,0.030726200435310602,42.15809539984912,42.15809539984912,43.32977249985561,[-0.0390625],[0.28125],[1],[0],[0],[1.2124470002017915],['target'],,,,A2,001,2024-10-07_20h11.13.283,untitled,2024.1.5,None,2024-10-07 20h11.23.586085 +0530,
18,0,18,0,43.37465489981696,,,,,,,,,,,,43.332663299981505,10,0.03152700001373887,43.37465489981696,43.37465489981696,44.810510999988765,[0.06770833333333333],[-0.17708333333333334],[1],[0],[0],[1.477261799853295],['target'],,,,A2,001,2024-10-07_20h11.13.283,untitled,2024.1.5,None,2024-10-07 20h11.23.586085 +0530,
19,0,19,0,44.8549819001928,,,,,,,,,,,,44.81344070006162,10,0.03120799968019128,44.8549819001928,44.8549819001928,46.69279310014099,[-0.17578125],[0.453125],[1],[0],[0],[1.8789305002428591],['target'],,,,A2,001,2024-10-07_20h11.13.283,untitled,2024.1.5,None,2024-10-07 20h11.23.586085 +0530,
20,0,20,0,46.73574509983882,,,,,,,,,,,,46.69563309988007,10,0.029699400067329407,46.73574509983882,46.73574509983882,48.007654199842364,[-0.10546875],[0.01953125],[1],[0],[0],[1.3116693003103137],['target'],,,,A2,001,2024-10-07_20h11.13.283,untitled,2024.1.5,None,2024-10-07 20h11.23.586085 +0530,
21,0,21,0,48.032358900178224,,,,,,,,,,,,48.010803000070155,5,0.015525000169873238,48.032358900178224,48.032358900178224,49.2233306998387,[-0.484375],[-0.059895833333333336],[1],[0],[0],[1.2121214997023344],['target'],,,,A2,001,2024-10-07_20h11.13.283,untitled,2024.1.5,None,2024-10-07 20h11.23.586085 +0530,
22,0,22,0,49.24850700004026,,,,,,,,,,,,49.22617990011349,5,0.015658800024539232,49.24850700004026,49.24850700004026,50.82233909983188,[0.06510416666666667],[-0.3697916666666667],[1],[0],[0],[1.5957195996306837],['target'],,,,A2,001,2024-10-07_20h11.13.283,untitled,2024.1.5,None,2024-10-07 20h11.23.586085 +0530,
23,0,23,0,50.84740399988368,,,,,,,,,,,,50.82519759982824,5,0.01543379994109273,50.84740399988368,50.84740399988368,52.43715990008786,[-0.47265625],[-0.23958333333333334],[1],[0],[0],[1.611516300123185],['target'],,,,A2,001,2024-10-07_20h11.13.283,untitled,2024.1.5,None,2024-10-07 20h11.23.586085 +0530,
24,0,24,0,52.46219909982756,,,,,,,,,,,,52.44013000000268,5,0.015349499881267548,52.46219909982756,52.46219909982756,54.06917869998142,[0.41015625],[-0.11848958333333333],[1],[0],[0],[1.6286067999899387],['target'],,,,A2,001,2024-10-07_20h11.13.283,untitled,2024.1.5,None,2024-10-07 20h11.23.586085 +0530,
25,0,25,0,54.11177509976551,,,,,,,,,,,,54.0720504000783,10,0.02935949992388487,54.11177509976551,54.11177509976551,55.451068399939686,[0.3138020833333333],[-0.234375],[1],[0],[0],[1.3786194999702275],['target'],,,,A2,001,2024-10-07_20h11.13.283,untitled,2024.1.5,None,2024-10-07 20h11.23.586085 +0530,
26,0,26,0,55.493316600099206,,,,,,,,,,,,55.45394260017201,10,0.029389699921011925,55.493316600099206,55.493316600099206,57.33220609975979,[-0.35546875],[-0.4479166666666667],[1],[0],[0],[1.8778504999354482],['target'],,,,A2,001,2024-10-07_20h11.13.283,untitled,2024.1.5,None,2024-10-07 20h11.23.586085 +0530,
27,0,27,0,57.357688600197434,,,,,,,,,,,,57.335027900058776,5,0.015292699914425611,57.357688600197434,57.357688600197434,59.2140782000497,[0.43359375],[0.3255208333333333],[1],[0],[0],[1.8785656997933984],['target'],,,,A2,001,2024-10-07_20h11.13.283,untitled,2024.1.5,None,2024-10-07 20h11.23.586085 +0530,
28,0,28,0,59.23970489995554,,,,,,,,,,,,59.21692880010232,5,0.01514390017837286,59.23970489995554,59.23970489995554,60.77913609985262,[0.22265625],[-0.4088541666666667],[1],[0],[0],[1.5617860001511872],['target'],,,,A2,001,2024-10-07_20h11.13.283,untitled,2024.1.5,None,2024-10-07 20h11.23.586085 +0530,
29,0,29,0,60.80423570005223,,,,,,,,,,,,60.782095400150865,5,0.015188100282102823,60.80423570005223,60.80423570005223,62.311048300005496,[0.4348958333333333],[-0.21614583333333334],[1],[0],[0],[1.5284486999735236],['target'],,,,A2,001,2024-10-07_20h11.13.283,untitled,2024.1.5,None,2024-10-07 20h11.23.586085 +0530,
30,0,30,0,62.33680139994249,,,,,,,,,,,,62.313942399807274,5,0.015749000012874603,62.33680139994249,62.33680139994249,63.44272710010409,[0.15104166666666666],[-0.234375],[1],[0],[0],[1.1282683000899851],['target'],,,,A2,001,2024-10-07_20h11.13.283,untitled,2024.1.5,None,2024-10-07 20h11.23.586085 +0530,
31,0,31,0,63.48653170000762,,,,,,,,,,,,63.445656899828464,10,0.030035899952054024,63.48653170000762,63.48653170000762,65.52435299986973,[0.0],[-0.3984375],[1],[0],[0],[2.078266500029713],['target'],,,,A2,001,2024-10-07_20h11.13.283,untitled,2024.1.5,None,2024-10-07 20h11.23.586085 +0530,
32,0,32,0,65.54980089981109,,,,,,,,,,,,65.52716459985822,5,0.015159900300204754,65.54980089981109,65.54980089981109,66.75696319993585,[0.19140625],[-0.3372395833333333],[1],[0],[0],[1.2293363995850086],['target'],,,,A2,001,2024-10-07_20h11.13.283,untitled,2024.1.5,None,2024-10-07 20h11.23.586085 +0530,
33,0,33,0,66.78241850016639,,,,,,,,,,,,66.75978359999135,5,0.015304999891668558,66.78241850016639,66.78241850016639,67.98855780018494,[0.17838541666666666],[-0.3333333333333333],[1],[0],[0],[1.2283870996907353],['target'],,,,A2,001,2024-10-07_20h11.13.283,untitled,2024.1.5,None,2024-10-07 20h11.23.586085 +0530,
34,0,34,0,68.01511610019952,,,,,,,,,,,,67.99162960005924,5,0.015766900032758713,68.01511610019952,68.01511610019952,69.48752439999953,[0.11848958333333333],[0.13541666666666666],[1],[0],[0],[1.4954515998251736],['target'],,,,A2,001,2024-10-07_20h11.13.283,untitled,2024.1.5,None,2024-10-07 20h11.23.586085 +0530,
35,0,35,0,69.53077889978886,,,,,,,,,,,,69.4903287999332,10,0.029330499935895205,69.53077889978886,69.53077889978886,70.80219169985503,[0.4192708333333333],[0.2421875],[1],[0],[0],[1.3114435002207756],['target'],,,,A2,001,2024-10-07_20h11.13.283,untitled,2024.1.5,None,2024-10-07 20h11.23.586085 +0530,
36,0,36,0,70.8463524999097,,,,,,,,,,,,70.80506059993058,10,0.030377600342035294,70.8463524999097,70.8463524999097,72.40108329989016,[0.4205729166666667],[-0.37890625],[1],[0],[0],[1.595626600086689],['target'],,,,A2,001,2024-10-07_20h11.13.283,untitled,2024.1.5,None,2024-10-07 20h11.23.586085 +0530,
37,0,37,0,72.42742859991267,,,,,,,,,,,,72.40407379996032,5,0.015590900089591742,72.42742859991267,72.42742859991267,74.13273369986564,[-0.1953125],[-0.06770833333333333],[1],[0],[0],[1.7282207999378443],['target'],,,,A2,001,2024-10-07_20h11.13.283,untitled,2024.1.5,None,2024-10-07 20h11.23.586085 +0530,
38,0,38,0,74.17574420012534,,,,,,,,,,,,74.13552480004728,10,0.029257100075483322,74.17574420012534,74.17574420012534,75.36489460011944,[-0.3971354166666667],[-0.041666666666666664],[1],[0],[0],[1.2288156999275088],['target'],,,,A2,001,2024-10-07_20h11.13.283,untitled,2024.1.5,None,2024-10-07 20h11.23.586085 +0530,
39,0,39,0,75.40855359984562,,,,,,,,,,,,75.36769969994202,10,0.02992290025576949,75.40855359984562,75.40855359984562,76.58008430013433,[-0.3424479166666667],[0.2421875],[1],[0],[0],[1.2119378997012973],['target'],,,,A2,001,2024-10-07_20h11.13.283,untitled,2024.1.5,None,2024-10-07 20h11.23.586085 +0530,
40,0,40,0,76.60589820006862,,,,,,,,,,,,76.5829420001246,5,0.015182999894022942,76.60589820006862,76.60589820006862,77.94570400007069,[0.4166666666666667],[0.2955729166666667],[1],[0],[0],[1.3623067000880837],['target'],,,,A2,001,2024-10-07_20h11.13.283,untitled,2024.1.5,None,2024-10-07 20h11.23.586085 +0530,
41,0,41,0,77.97202729992568,,,,,,,,,,,,77.94858520012349,5,0.015929399989545345,77.97202729992568,77.97202729992568,79.51163470000029,[0.11458333333333333],[0.08203125],[1],[0],[0],[1.5625546998344362],['target'],,,,A2,001,2024-10-07_20h11.13.283,untitled,2024.1.5,None,2024-10-07 20h11.23.586085 +0530,
42,0,42,0,79.5546452999115,,,,,,,,,,,,79.51443560002372,10,0.029122200328856707,79.5546452999115,79.5546452999115,80.79275989998132,[0.234375],[0.02734375],[1],[0],[0],[1.2778674000874162],['target'],,,,A2,001,2024-10-07_20h11.13.283,untitled,2024.1.5,None,2024-10-07 20h11.23.586085 +0530,
43,0,43,0,80.83674339996651,,,,,,,,,,,,80.79560129996389,10,0.029681799933314323,80.83674339996651,80.83674339996651,82.20783510012552,[-0.07942708333333333],[-0.02734375],[1],[0],[0],[1.4117465997114778],['target'],,,,A2,001,2024-10-07_20h11.13.283,untitled,2024.1.5,None,2024-10-07 20h11.23.586085 +0530,
44,0,44,0,82.25162559980527,,,,,,,,,,,,82.21064929990098,10,0.02963340003043413,82.25162559980527,82.25162559980527,83.95604590000585,[-0.2760416666666667],[0.41015625],[1],[0],[0],[1.7449483997188509],['target'],,,,A2,001,2024-10-07_20h11.13.283,untitled,2024.1.5,None,2024-10-07 20h11.23.586085 +0530,
45,0,45,0,83.99218109995127,,,,,,,,,,,,83.96002270001918,5,0.021998499985784292,83.99218109995127,83.99218109995127,85.3553622001782,[0.037760416666666664],[-0.11848958333333333],[1],[0],[0],[1.3947995998896658],['target'],,,,A2,001,2024-10-07_20h11.13.283,untitled,2024.1.5,None,2024-10-07 20h11.23.586085 +0530,
46,0,46,0,85.38158110016957,,,,,,,,,,,,85.3581687998958,5,0.016208800021559,85.38158110016957,85.38158110016957,86.73705619992688,[-0.3671875],[0.06901041666666667],[1],[0],[0],[1.3784412001259625],['target'],,,,A2,001,2024-10-07_20h11.13.283,untitled,2024.1.5,None,2024-10-07 20h11.23.586085 +0530,
47,0,47,0,86.76252549979836,,,,,,,,,,,,86.74002599995583,5,0.015586299821734428,86.76252549979836,86.76252549979836,87.96870309999213,[-0.20833333333333334],[-0.14583333333333334],[1],[0],[0],[1.228252099826932],['target'],,,,A2,001,2024-10-07_20h11.13.283,untitled,2024.1.5,None,2024-10-07 20h11.23.586085 +0530,
48,0,48,0,88.0117783001624,,,,,,,,,,,,87.9715326000005,10,0.029256300069391727,88.0117783001624,88.0117783001624,89.03440529992804,[-0.15625],[-0.1484375],[1],[0],[0],[1.0623984998092055],['target'],,,,A2,001,2024-10-07_20h11.13.283,untitled,2024.1.5,None,2024-10-07 20h11.23.586085 +0530,
49,0,49,0,89.07779619982466,,,,,,,,,,,,89.03726630005985,10,0.02948240004479885,89.07779619982466,89.07779619982466,90.25060519995168,[-0.061197916666666664],[-0.0390625],[1],[0],[0],[1.2128111999481916],['target'],,,,A2,001,2024-10-07_20h11.13.283,untitled,2024.1.5,None,2024-10-07 20h11.23.586085 +0530,
50,0,50,0,90.29405200015754,,,,,,,,,,,,90.2534624999389,10,0.02991019980981946,90.29405200015754,90.29405200015754,91.48204859998077,[-0.006510416666666667],[0.17057291666666666],[1],[0],[0],[1.2280150996521115],['target'],,,,A2,001,2024-10-07_20h11.13.283,untitled,2024.1.5,None,2024-10-07 20h11.23.586085 +0530,
51,0,51,0,91.52550079999492,,,,,,,,,,,,91.48499209992588,10,0.02950129983946681,91.52550079999492,91.52550079999492,95.94486919976771,[-0.006510416666666667],[0.4609375],[1],[0],[0],[4.459429000038654],['target'],,,,A2,001,2024-10-07_20h11.13.283,untitled,2024.1.5,None,2024-10-07 20h11.23.586085 +0530,
52,0,52,0,95.97021279996261,,,,,,,,,,,,95.94775169994682,5,0.015176400076597929,95.97021279996261,95.97021279996261,97.64292600005865,[0.3893229166666667],[-0.3294270833333333],[1],[0],[0],[1.6947608003392816],['target'],,,,A2,001,2024-10-07_20h11.13.283,untitled,2024.1.5,None,2024-10-07 20h11.23.586085 +0530,
53,0,53,0,97.68601249996573,,,,,,,,,,,,97.64579239999875,10,0.028805000241845846,97.68601249996573,97.68601249996573,99.00806460017338,[0.15625],[-0.45703125],[1],[0],[0],[1.3618420995771885],['target'],,,,A2,001,2024-10-07_20h11.13.283,untitled,2024.1.5,None,2024-10-07 20h11.23.586085 +0530,
54,0,54,0,99.05082109989598,,,,,,,,,,,,99.01096480013803,10,0.029026000294834375,99.05082109989598,99.05082109989598,100.47345799999312,[-0.11067708333333333],[0.1015625],[1],[0],[0],[1.4620944000780582],['target'],,,,A2,001,2024-10-07_20h11.13.283,untitled,2024.1.5,None,2024-10-07 20h11.23.586085 +0530,
55,0,55,0,100.49929219996557,,,,,,,,,,,,100.47646410018206,5,0.015705800149589777,100.49929219996557,100.49929219996557,101.78849019994959,[-0.37890625],[-0.3307291666666667],[1],[0],[0],[1.311609299853444],['target'],,,,A2,001,2024-10-07_20h11.13.283,untitled,2024.1.5,None,2024-10-07 20h11.23.586085 +0530,
56,0,56,0,101.83131529996172,,,,,,,,,,,,101.79128920007497,10,0.029086099937558174,101.83131529996172,101.83131529996172,103.28681840002537,[-0.3880208333333333],[-0.4231770833333333],[1],[0],[0],[1.4951073001138866],['target'],,,,A2,001,2024-10-07_20h11.13.283,untitled,2024.1.5,None,2024-10-07 20h11.23.586085 +0530,
57,0,57,0,103.33044000016525,,,,,,,,,,,,103.28964209975675,10,0.029902600217610598,103.33044000016525,103.33044000016525,105.1859007999301,[0.4114583333333333],[-0.10026041666666667],[1],[0],[0],[1.8958300002850592],['target'],,,,A2,001,2024-10-07_20h11.13.283,untitled,2024.1.5,None,2024-10-07 20h11.23.586085 +0530,
58,0,58,0,105.22903809975833,,,,,,,,,,,,105.18872659979388,10,0.029469499830156565,105.22903809975833,105.22903809975833,106.51716909976676,[0.13151041666666666],[-0.040364583333333336],[1],[0],[0],[1.3280352000147104],['target'],,,,A2,001,2024-10-07_20h11.13.283,untitled,2024.1.5,None,2024-10-07 20h11.23.586085 +0530,
59,0,59,0,106.559721800033,,,,,,,,,,,,106.52000139979646,10,0.02888560015708208,106.559721800033,106.559721800033,107.86582239996642,[0.12760416666666666],[-0.3893229166666667],[1],[0],[0],[1.3453898001462221],['target'],,,,A2,001,2024-10-07_20h11.13.283,untitled,2024.1.5,None,2024-10-07 20h11.23.586085 +0530,
60,0,60,0,107.89212360000238,,,,,,,,,,,,107.86872939998284,5,0.015699099749326706,107.89212360000238,107.89212360000238,109.31470869993791,[-0.36328125],[-0.24609375],[1],[0],[0],[1.4455621996894479],['target'],,,,A2,001,2024-10-07_20h11.13.283,untitled,2024.1.5,None,2024-10-07 20h11.23.586085 +0530,
61,0,61,0,109.33967769984156,,,,,,,,,,,,109.31756009999663,5,0.015097499825060368,109.33967769984156,109.33967769984156,110.9131506998092,[0.296875],[-0.4192708333333333],[1],[0],[0],[1.5951693002134562],['target'],,,,A2,001,2024-10-07_20h11.13.283,untitled,2024.1.5,None,2024-10-07 20h11.23.586085 +0530,
62,0,62,0,110.9387507000938,,,,,,,,,,,,110.91599150002003,5,0.015112699940800667,110.9387507000938,110.9387507000938,112.3120796000585,[-0.4778645833333333],[-0.17838541666666666],[1],[0],[0],[1.395659999921918],['target'],,,,A2,001,2024-10-07_20h11.13.283,untitled,2024.1.5,None,2024-10-07 20h11.23.586085 +0530,
63,0,63,0,112.33785670017824,,,,,,,,,,,,112.3149556000717,5,0.015872499905526638,112.33785670017824,112.33785670017824,113.8941305000335,[0.2942708333333333],[0.2109375],[1],[0],[0],[1.5787320998497307],['target'],,,,A2,001,2024-10-07_20h11.13.283,untitled,2024.1.5,None,2024-10-07 20h11.23.586085 +0530,
64,0,64,0,113.92043389985338,,,,,,,,,,,,113.89698249986395,5,0.015765300020575523,113.92043389985338,113.92043389985338,114.97614450007677,[0.20963541666666666],[0.07552083333333333],[1],[0],[0],[1.0787247000262141],['target'],,,,A2,001,2024-10-07_20h11.13.283,untitled,2024.1.5,None,2024-10-07 20h11.23.586085 +0530,
65,0,65,0,115.00118830008432,,,,,,,,,,,,114.97898360015824,5,0.015106200240552425,115.00118830008432,115.00118830008432,116.84028640016913,[-0.01171875],[-0.3528645833333333],[1],[0],[0],[1.8609011000953615],['target'],,,,A2,001,2024-10-07_20h11.13.283,untitled,2024.1.5,None,2024-10-07 20h11.23.586085 +0530,
66,0,66,0,116.86645800014958,,,,,,,,,,,,116.84313920000568,5,0.01570309977978468,116.86645800014958,116.86645800014958,121.86920659989119,[0.005208333333333333],[-0.4674479166666667],[1],[0],[0],[5.025638000108302],['target'],,,,A2,001,2024-10-07_20h11.13.283,untitled,2024.1.5,None,2024-10-07 20h11.23.586085 +0530,
67,0,67,0,121.89532089978456,,,,,,,,,,,,121.87206149986014,5,0.015680199954658747,121.89532089978456,121.89532089978456,123.46729669999331,[0.18359375],[0.4205729166666667],[1],[0],[0],[1.5948359998874366],['target'],,,,A2,001,2024-10-07_20h11.13.283,untitled,2024.1.5,None,2024-10-07 20h11.23.586085 +0530,
68,0,68,0,123.49352459982038,,,,,,,,,,,,123.4702142002061,5,0.015740899834781885,123.49352459982038,123.49352459982038,124.76660860003904,[-0.09244791666666667],[-0.2630208333333333],[1],[0],[0],[1.295957500115037],['target'],,,,A2,001,2024-10-07_20h11.13.283,untitled,2024.1.5,None,2024-10-07 20h11.23.586085 +0530,
69,0,69,0,124.8105633999221,,,,,,,,,,,,124.76983760017902,10,0.029401100240647793,124.8105633999221,124.8105633999221,126.14854060020298,[-0.2825520833333333],[-0.15494791666666666],[1],[0],[0],[1.3782426002435386],['target'],,,,A2,001,2024-10-07_20h11.13.283,untitled,2024.1.5,None,2024-10-07 20h11.23.586085 +0530,
70,0,70,0,126.1749141998589,,,,,,,,,,,,126.15146030019969,5,0.015730599872767925,126.1749141998589,126.1749141998589,127.39777009980753,[-0.4518229166666667],[-0.022135416666666668],[1],[0],[0],[1.2458575000055134],['target'],,,,A2,001,2024-10-07_20h11.13.283,untitled,2024.1.5,None,2024-10-07 20h11.23.586085 +0530,
71,0,71,0,127.44195279991254,,,,,,,,,,,,127.40065070008859,10,0.0297435000538826,127.44195279991254,127.44195279991254,129.26196540007368,[-0.3138020833333333],[-0.2903645833333333],[1],[0],[0],[1.8608961999416351],['target'],,,,A2,001,2024-10-07_20h11.13.283,untitled,2024.1.5,None,2024-10-07 20h11.23.586085 +0530,
72,0,72,0,129.30567670008168,,,,,,,,,,,,129.26482169982046,10,0.029608999844640493,129.30567670008168,129.30567670008168,130.52747630001977,[0.11458333333333333],[-0.2265625],[1],[0],[0],[1.2622010996565223],['target'],,,,A2,001,2024-10-07_20h11.13.283,untitled,2024.1.5,None,2024-10-07 20h11.23.586085 +0530,
73,0,73,0,130.57148429984227,,,,,,,,,,,,130.53038890007883,10,0.02957740006968379,130.57148429984227,130.57148429984227,131.8759889001958,[-0.06901041666666667],[-0.12239583333333333],[1],[0],[0],[1.3452570997178555],['target'],,,,A2,001,2024-10-07_20h11.13.283,untitled,2024.1.5,None,2024-10-07 20h11.23.586085 +0530,
74,0,74,0,131.90092060016468,,,,,,,,,,,,131.87883289996535,5,0.015035499818623066,131.90092060016468,131.90092060016468,132.74220039974898,[-0.10546875],[-0.13411458333333334],[1],[0],[0],[0.8629180998541415],['target'],,,,A2,001,2024-10-07_20h11.13.283,untitled,2024.1.5,None,2024-10-07 20h11.23.586085 +0530,
75,0,75,0,132.78682490019128,,,,,,,,,,,,132.74512830004096,10,0.02984130010008812,132.78682490019128,132.78682490019128,134.37296780012548,[-0.006510416666666667],[0.3541666666666667],[1],[0],[0],[1.6274639000184834],['target'],,,,A2,001,2024-10-07_20h11.13.283,untitled,2024.1.5,None,2024-10-07 20h11.23.586085 +0530,
76,0,76,0,134.39851009985432,,,,,,,,,,,,134.37591629987583,5,0.015180500224232674,134.39851009985432,134.39851009985432,135.62219200003892,[0.19010416666666666],[0.053385416666666664],[1],[0],[0],[1.2458448996767402],['target'],,,,A2,001,2024-10-07_20h11.13.283,untitled,2024.1.5,None,2024-10-07 20h11.23.586085 +0530,
77,0,77,0,135.66639789985493,,,,,,,,,,,,135.62514320015907,10,0.02962850034236908,135.66639789985493,135.66639789985493,136.8040491999127,[0.2565104166666667],[0.2552083333333333],[1],[0],[0],[1.178468399681151],['target'],,,,A2,001,2024-10-07_20h11.13.283,untitled,2024.1.5,None,2024-10-07 20h11.23.586085 +0530,
78,0,78,0,136.84806059999391,,,,,,,,,,,,136.80709060002118,10,0.029983300250023603,136.84806059999391,136.84806059999391,138.4695894997567,[0.4921875],[-0.16666666666666666],[1],[0],[0],[1.662068100180477],['target'],,,,A2,001,2024-10-07_20h11.13.283,untitled,2024.1.5,None,2024-10-07 20h11.23.586085 +0530,
79,0,79,0,138.49477359978482,,,,,,,,,,,,138.47243910003453,5,0.015305699780583382,138.49477359978482,138.49477359978482,139.78556569991633,[0.09114583333333333],[-0.1640625],[1],[0],[0],[1.312703600153327],['target'],,,,A2,001,2024-10-07_20h11.13.283,untitled,2024.1.5,None,2024-10-07 20h11.23.586085 +0530,
80,0,80,0,139.81162230018526,,,,,,,,,,,,139.78872990002856,5,0.015859799925237894,139.81162230018526,139.81162230018526,141.2501986999996,[0.48828125],[-0.09895833333333333],[1],[0],[0],[1.4610168002545834],['target'],,,,A2,001,2024-10-07_20h11.13.283,untitled,2024.1.5,None,2024-10-07 20h11.23.586085 +0530,
81,0,81,0,141.2756662000902,,,,,,,,,,,,141.25310759991407,5,0.015506399795413017,141.2756662000902,141.2756662000902,142.86556100007147,[0.1953125],[0.19791666666666666],[1],[0],[0],[1.6119773997925222],['target'],,,,A2,001,2024-10-07_20h11.13.283,untitled,2024.1.5,None,2024-10-07 20h11.23.586085 +0530,
82,0,82,0,142.89173009991646,,,,,,,,,,,,142.86869420018047,5,0.015549299772828817,142.89173009991646,142.89173009991646,144.21393910003826,[0.22526041666666666],[0.44140625],[1],[0],[0],[1.3447864996269345],['target'],,,,A2,001,2024-10-07_20h11.13.283,untitled,2024.1.5,None,2024-10-07 20h11.23.586085 +0530,
83,0,83,0,144.2566543999128,,,,,,,,,,,,144.21679680002853,10,0.029137100093066692,144.2566543999128,144.2566543999128,145.62923240009695,[0.016927083333333332],[-0.3125],[1],[0],[0],[1.41199960000813],['target'],,,,A2,001,2024-10-07_20h11.13.283,untitled,2024.1.5,None,2024-10-07 20h11.23.586085 +0530,
84,0,84,0,145.6546330000274,,,,,,,,,,,,145.63210309995338,5,0.01531440019607544,145.6546330000274,145.6546330000274,147.3277565999888,[-0.0546875],[0.4466145833333333],[1],[0],[0],[1.6951460000127554],['target'],,,,A2,001,2024-10-07_20h11.13.283,untitled,2024.1.5,None,2024-10-07 20h11.23.586085 +0530,
85,0,85,0,147.3532062000595,,,,,,,,,,,,147.33064689999446,5,0.015552700031548738,147.3532062000595,147.3532062000595,149.02588160010055,[0.4869791666666667],[-0.296875],[1],[0],[0],[1.6947035999037325],['target'],,,,A2,001,2024-10-07_20h11.13.283,untitled,2024.1.5,None,2024-10-07 20h11.23.586085 +0530,
86,0,86,0,149.0679688998498,,,,,,,,,,,,149.02882689982653,10,0.028237299993634224,149.0679688998498,149.0679688998498,150.85750029981136,[-0.3216145833333333],[-0.026041666666666668],[1],[0],[0],[1.8282445999793708],['target'],,,,A2,001,2024-10-07_20h11.13.283,untitled,2024.1.5,None,2024-10-07 20h11.23.586085 +0530,
87,0,87,0,150.900870999787,,,,,,,,,,,,150.86047059996054,10,0.02964430022984743,150.900870999787,150.900870999787,152.72184809995815,[0.39453125],[0.22786458333333334],[1],[0],[0],[1.860949999652803],['target'],,,,A2,001,2024-10-07_20h11.13.283,untitled,2024.1.5,None,2024-10-07 20h11.23.586085 +0530,
88,0,88,0,152.7642957000062,,,,,,,,,,,,152.72467159992084,10,0.028855899814516306,152.7642957000062,152.7642957000062,154.8034633998759,[-0.17838541666666666],[-0.4348958333333333],[1],[0],[0],[2.0784271000884473],['target'],,,,A2,001,2024-10-07_20h11.13.283,untitled,2024.1.5,None,2024-10-07 20h11.23.586085 +0530,
89,0,89,0,154.83046690002084,,,,,,,,,,,,154.8064521001652,5,0.01670949999243021,154.83046690002084,154.83046690002084,156.68512579984963,[0.07942708333333333],[-0.4661458333333333],[1],[0],[0],[1.8781587998382747],['target'],,,,A2,001,2024-10-07_20h11.13.283,untitled,2024.1.5,None,2024-10-07 20h11.23.586085 +0530,
90,0,90,0,156.72852949984372,,,,,,,,,,,,156.68810939975083,10,0.03003100026398897,156.72852949984372,156.72852949984372,158.08379809977487,[-0.3098958333333333],[-0.12760416666666666],[1],[0],[0],[1.3952478999271989],['target'],,,,A2,001,2024-10-07_20h11.13.283,untitled,2024.1.5,None,2024-10-07 20h11.23.586085 +0530,
91,0,91,0,158.12637200020254,,,,,,,,,,,,158.08667499991134,10,0.02923970017582178,158.12637200020254,158.12637200020254,159.7483407999389,[-0.3098958333333333],[0.3932291666666667],[1],[0],[0],[1.6611202000640333],['target'],,,,A2,001,2024-10-07_20h11.13.283,untitled,2024.1.5,None,2024-10-07 20h11.23.586085 +0530,
92,0,92,0,159.7739216000773,,,,,,,,,,,,159.75136379990727,5,0.01551860012114048,159.7739216000773,159.7739216000773,161.46405339986086,[-0.4453125],[0.4596354166666667],[1],[0],[0],[1.7122417003847659],['target'],,,,A2,001,2024-10-07_20h11.13.283,untitled,2024.1.5,None,2024-10-07 20h11.23.586085 +0530,
93,0,93,0,161.50876760017127,,,,,,,,,,,,161.46689969999716,10,0.028934200294315815,161.50876760017127,161.50876760017127,163.0117020001635,[-0.4049479166666667],[0.13411458333333334],[1],[0],[0],[1.544375500176102],['target'],,,,A2,001,2024-10-07_20h11.13.283,untitled,2024.1.5,None,2024-10-07 20h11.23.586085 +0530,
94,0,94,0,163.0577460997738,,,,,,,,,,,,163.01454469980672,10,0.02906750002875924,163.0577460997738,163.0577460997738,164.12706759991124,[-0.21744791666666666],[0.13020833333333334],[1],[0],[0],[1.1121420003473759],['target'],,,,A2,001,2024-10-07_20h11.13.283,untitled,2024.1.5,None,2024-10-07 20h11.23.586085 +0530,
95,0,95,0,164.17255769995973,,,,,,,,,,,,164.1299942000769,10,0.029439199715852737,164.17255769995973,164.17255769995973,165.54270790005103,[-0.4361979166666667],[-0.026041666666666668],[1],[0],[0],[1.412284200079739],['target'],,,,A2,001,2024-10-07_20h11.13.283,untitled,2024.1.5,None,2024-10-07 20h11.23.586085 +0530,
96,0,96,0,165.56897010002285,,,,,,,,,,,,165.54554479988292,5,0.01511499984189868,165.56897010002285,165.56897010002285,167.95739169977605,[0.3294270833333333],[-0.4609375],[1],[0],[0],[2.4114851001650095],['target'],,,,A2,001,2024-10-07_20h11.13.283,untitled,2024.1.5,None,2024-10-07 20h11.23.586085 +0530,
97,0,97,0,167.98292089998722,,,,,,,,,,,,167.9602383999154,5,0.015649400185793638,167.98292089998722,167.98292089998722,169.1889940998517,[0.2942708333333333],[0.109375],[1],[0],[0],[1.228348399978131],['target'],,,,A2,001,2024-10-07_20h11.13.283,untitled,2024.1.5,None,2024-10-07 20h11.23.586085 +0530,
98,0,98,0,169.23326649982482,,,,,,,,,,,,169.19180270005018,10,0.029161000158637762,169.23326649982482,169.23326649982482,170.45486239995807,[0.4049479166666667],[0.28125],[1],[0],[0],[1.2627179003320634],['target'],,,,A2,001,2024-10-07_20h11.13.283,untitled,2024.1.5,None,2024-10-07 20h11.23.586085 +0530,
99,0,99,0,170.4814434000291,,,,,,,,,,,,170.45772070018575,5,0.016076500061899424,170.4814434000291,170.4814434000291,171.86977639980614,[-0.234375],[-0.3567708333333333],[1],[0],[0],[1.4116285000927746],['target'],,,,A2,001,2024-10-07_20h11.13.283,untitled,2024.1.5,None,2024-10-07 20h11.23.586085 +0530,
100,0,100,0,171.8970169001259,,,,,,,,,,,,171.87256229994819,5,0.014973099809139967,171.8970169001259,171.8970169001259,173.2189961001277,[-0.39453125],[0.15494791666666666],[1],[0],[0],[1.3459239001385868],['target'],,,,A2,001,2024-10-07_20h11.13.283,untitled,2024.1.5,None,2024-10-07 20h11.23.586085 +0530,
101,0,101,0,173.26162840006873,,,,,,,,,,,,173.22179559990764,10,0.028711500111967325,173.26162840006873,173.26162840006873,175.38358750008047,[0.4973958333333333],[-0.46484375],[1],[0],[0],[2.161381599958986],['target'],,,,A2,001,2024-10-07_20h11.13.283,untitled,2024.1.5,None,2024-10-07 20h11.23.586085 +0530,
102,0,102,0,175.41056769993156,,,,,,,,,,,,175.38648839993402,5,0.016109300311654806,175.41056769993156,175.41056769993156,177.01520449994132,[-0.3098958333333333],[-0.4153645833333333],[1],[0],[0],[1.6282671000808477],['target'],,,,A2,001,2024-10-07_20h11.13.283,untitled,2024.1.5,None,2024-10-07 20h11.23.586085 +0530,
103,0,103,0,177.05950250010937,,,,,,,,,,,,177.01807220000774,10,0.031030800193548203,177.05950250010937,177.05950250010937,178.66349769989029,[0.18489583333333334],[0.06901041666666667],[1],[0],[0],[1.6449933000840247],['target'],,,,A2,001,2024-10-07_20h11.13.283,untitled,2024.1.5,None,2024-10-07 20h11.23.586085 +0530,
104,0,104,0,178.7085508997552,,,,,,,,,,,,178.66647170018405,10,0.029532999731600285,178.7085508997552,178.7085508997552,180.42809029994532,[-0.4244791666666667],[-0.453125],[1],[0],[0],[1.7611887999810278],['target'],,,,A2,001,2024-10-07_20h11.13.283,untitled,2024.1.5,None,2024-10-07 20h11.23.586085 +0530,
105,0,105,0,180.47329830005765,,,,,,,,,,,,180.43093599984422,10,0.029689999762922525,180.47329830005765,180.47329830005765,181.84345680009574,[-0.016927083333333332],[-0.24609375],[1],[0],[0],[1.4121112003922462],['target'],,,,A2,001,2024-10-07_20h11.13.283,untitled,2024.1.5,None,2024-10-07 20h11.23.586085 +0530,
106,0,106,0,181.88918399997056,,,,,,,,,,,,181.84641590015963,10,0.028505200054496527,181.88918399997056,181.88918399997056,183.80893089994788,[0.44140625],[0.17838541666666666],[1],[0],[0],[1.961979900021106],['target'],,,,A2,001,2024-10-07_20h11.13.283,untitled,2024.1.5,None,2024-10-07 20h11.23.586085 +0530,
107,0,107,0,183.85146880010143,,,,,,,,,,,,183.8117912998423,10,0.029043199960142374,183.85146880010143,183.85146880010143,185.22375229978934,[-0.022135416666666668],[0.47265625],[1],[0],[0],[1.4114334001205862],['target'],,,,A2,001,2024-10-07_20h11.13.283,untitled,2024.1.5,None,2024-10-07 20h11.23.586085 +0530,
108,0,108,0,185.24981499975547,,,,,,,,,,,,185.2269206000492,5,0.015392499975860119,185.24981499975547,185.24981499975547,186.77233840012923,[-0.11588541666666667],[-0.4453125],[1],[0],[0],[1.5449803001247346],['target'],,,,A2,001,2024-10-07_20h11.13.283,untitled,2024.1.5,None,2024-10-07 20h11.23.586085 +0530,
109,0,109,0,186.79920679982752,,,,,,,,,,,,186.77517829975113,5,0.015920599922537804,186.79920679982752,186.79920679982752,188.67069800011814,[0.13411458333333334],[0.2578125],[1],[0],[0],[1.8951145997270942],['target'],,,,A2,001,2024-10-07_20h11.13.283,untitled,2024.1.5,None,2024-10-07 20h11.23.586085 +0530,
110,0,110,0,188.69813509983942,,,,,,,,,,,,188.67355789989233,5,0.016298600006848574,188.69813509983942,188.69813509983942,190.33494789991528,[0.3997395833333333],[0.0078125],[1],[0],[0],[1.6608660998754203],['target'],,,,A2,001,2024-10-07_20h11.13.283,untitled,2024.1.5,None,2024-10-07 20h11.23.586085 +0530,
111,0,111,0,190.3807549001649,,,,,,,,,,,,190.33780359989032,10,0.02899719960987568,190.3807549001649,190.3807549001649,192.1665958999656,[0.2747395833333333],[0.024739583333333332],[1],[0],[0],[1.828419300261885],['target'],,,,A2,001,2024-10-07_20h11.13.283,untitled,2024.1.5,None,2024-10-07 20h11.23.586085 +0530,
112,0,112,0,192.21108220005408,,,,,,,,,,,,192.16950519988313,10,0.029889800120145082,192.21108220005408,192.21108220005408,193.93199549987912,[-0.3645833333333333],[-0.032552083333333336],[1],[0],[0],[1.7618986000306904],['target'],,,,A2,001,2024-10-07_20h11.13.283,untitled,2024.1.5,None,2024-10-07 20h11.23.586085 +0530,
113,0,113,0,193.97562990011647,,,,,,,,,,,,193.9348753998056,10,0.029503200203180313,193.97562990011647,193.97562990011647,195.47994320001453,[-0.4283854166666667],[0.234375],[1],[0],[0],[1.5446168999187648],['target'],,,,A2,001,2024-10-07_20h11.13.283,untitled,2024.1.5,None,2024-10-07 20h11.23.586085 +0530,
114,0,114,0,195.50632790010422,,,,,,,,,,,,195.48284889990464,5,0.01569070015102625,195.50632790010422,195.50632790010422,196.96258160006255,[-0.018229166666666668],[-0.15885416666666666],[1],[0],[0],[1.4793270998634398],['target'],,,,A2,001,2024-10-07_20h11.13.283,untitled,2024.1.5,None,2024-10-07 20h11.23.586085 +0530,
115,0,115,0,196.98983879992738,,,,,,,,,,,,196.96556429984048,5,0.015207900200039148,196.98983879992738,196.98983879992738,198.6433207001537,[0.265625],[0.20572916666666666],[1],[0],[0],[1.6772583997808397],['target'],,,,A2,001,2024-10-07_20h11.13.283,untitled,2024.1.5,None,2024-10-07 20h11.23.586085 +0530,
116,0,116,0,198.6702275001444,,,,,,,,,,,,198.64621229982004,5,0.015410500112921,198.6702275001444,198.6702275001444,200.05881549976766,[-0.08984375],[0.22005208333333334],[1],[0],[0],[1.412086899857968],['target'],,,,A2,001,2024-10-07_20h11.13.283,untitled,2024.1.5,None,2024-10-07 20h11.23.586085 +0530,
117,0,117,0,200.10239400016144,,,,,,,,,,,,200.06165669998154,10,0.028838100377470255,200.10239400016144,200.10239400016144,204.32218009978533,[-0.25390625],[0.46875],[1],[0],[0],[4.260102099739015],['target'],,,,A2,001,2024-10-07_20h11.13.283,untitled,2024.1.5,None,2024-10-07 20h11.23.586085 +0530,
118,0,118,0,204.36943079996854,,,,,,,,,,,,204.32504029991105,10,0.03278520004823804,204.36943079996854,204.36943079996854,205.68645730009302,[-0.10416666666666667],[0.4583333333333333],[1],[0],[0],[1.3610090003348887],['target'],,,,A2,001,2024-10-07_20h11.13.283,untitled,2024.1.5,None,2024-10-07 20h11.23.586085 +0530,
119,0,119,0,205.71243759989738,,,,,,,,,,,,205.68938589980826,5,0.015573800075799227,205.71243759989738,205.71243759989738,207.13563700020313,[-0.328125],[0.14192708333333334],[1],[0],[0],[1.445825300179422],['target'],,,,A2,001,2024-10-07_20h11.13.283,untitled,2024.1.5,None,2024-10-07 20h11.23.586085 +0530,
120,0,120,0,207.1801740997471,,,,,,,,,,,,207.13854139996693,10,0.0302758002653718,207.1801740997471,207.1801740997471,208.6170088001527,[0.12239583333333333],[0.12109375],[1],[0],[0],[1.4780851998366416],['target'],,,,A2,001,2024-10-07_20h11.13.283,untitled,2024.1.5,None,2024-10-07 20h11.23.586085 +0530,
121,0,121,0,208.6432630000636,,,,,,,,,,,,208.6198983998038,5,0.015791499987244606,208.6432630000636,208.6432630000636,210.49927899986506,[0.48828125],[0.33203125],[1],[0],[0],[1.8789333999156952],['target'],,,,A2,001,2024-10-07_20h11.13.283,untitled,2024.1.5,None,2024-10-07 20h11.23.586085 +0530,
122,0,122,0,210.54869050020352,,,,,,,,,,,,210.50289510004222,10,0.031050199642777443,210.54869050020352,210.54869050020352,212.28029009979218,[-0.3059895833333333],[0.2786458333333333],[1],[0],[0],[1.776980200316757],['target'],,,,A2,001,2024-10-07_20h11.13.283,untitled,2024.1.5,None,2024-10-07 20h11.23.586085 +0530,
123,0,123,0,212.30759349977598,,,,,,,,,,,,212.2831553001888,5,0.015500499866902828,212.30759349977598,212.30759349977598,214.26255089975893,[0.3736979166666667],[-0.24479166666666666],[1],[0],[0],[1.9789544004015625],['target'],,,,A2,001,2024-10-07_20h11.13.283,untitled,2024.1.5,None,2024-10-07 20h11.23.586085 +0530,
124,0,124,0,214.28818870009854,,,,,,,,,,,,214.2653343998827,5,0.01543479971587658,214.28818870009854,214.28818870009854,215.66061270004138,[0.09505208333333333],[-0.4375],[1],[0],[0],[1.3948468999005854],['target'],,,,A2,001,2024-10-07_20h11.13.283,untitled,2024.1.5,None,2024-10-07 20h11.23.586085 +0530,
125,0,125,0,215.68558369996026,,,,,,,,,,,,215.6634463998489,5,0.014910500030964613,215.68558369996026,215.68558369996026,217.4417766998522,[-0.18489583333333334],[0.4856770833333333],[1],[0],[0],[1.7777572995983064],['target'],,,,A2,001,2024-10-07_20h11.13.283,untitled,2024.1.5,None,2024-10-07 20h11.23.586085 +0530,
126,0,126,0,217.48595539992675,,,,,,,,,,,,217.4449240998365,10,0.030053300317376852,217.48595539992675,217.48595539992675,218.94094710005447,[-0.1640625],[0.046875],[1],[0],[0],[1.4955492997542024],['target'],,,,A2,001,2024-10-07_20h11.13.283,untitled,2024.1.5,None,2024-10-07 20h11.23.586085 +0530,
127,0,127,0,218.9670699997805,,,,,,,,,,,,218.94388489983976,5,0.015446600038558245,218.9670699997805,218.9670699997805,220.57320699980482,[-0.06510416666666667],[-0.4518229166666667],[1],[0],[0],[1.6288232998922467],['target'],,,,A2,001,2024-10-07_20h11.13.283,untitled,2024.1.5,None,2024-10-07 20h11.23.586085 +0530,
128,0,128,0,220.61859149998054,,,,,,,,,,,,220.57597729982808,10,0.029120500199496746,220.61859149998054,220.61859149998054,222.12039230018854,[0.11979166666666667],[-0.43359375],[1],[0],[0],[1.5440051998011768],['target'],,,,A2,001,2024-10-07_20h11.13.283,untitled,2024.1.5,None,2024-10-07 20h11.23.586085 +0530,
129,0,129,0,222.14641689974815,,,,,,,,,,,,222.12321159988642,5,0.015127100050449371,222.14641689974815,222.14641689974815,223.83616930013523,[0.3098958333333333],[-0.10286458333333333],[1],[0],[0],[1.7125540999695659],['target'],,,,A2,001,2024-10-07_20h11.13.283,untitled,2024.1.5,None,2024-10-07 20h11.23.586085 +0530,
130,0,130,0,223.86326250014827,,,,,,,,,,,,223.83903210004792,5,0.015474699903279543,223.86326250014827,223.86326250014827,226.399614199996,[-0.15104166666666666],[0.4973958333333333],[1],[0],[0],[2.560055900365114],['target'],,,,A2,001,2024-10-07_20h11.13.283,untitled,2024.1.5,None,2024-10-07 20h11.23.586085 +0530,
131,0,131,0,226.42539170011878,,,,,,,,,,,,226.40241409977898,5,0.015365200117230415,226.42539170011878,226.42539170011878,228.06536359991878,[-0.20442708333333334],[-0.0703125],[1],[0],[0],[1.6624154997989535],['target'],,,,A2,001,2024-10-07_20h11.13.283,untitled,2024.1.5,None,2024-10-07 20h11.23.586085 +0530,
132,0,132,0,228.11011759983376,,,,,,,,,,,,228.0683165998198,10,0.02906640013679862,228.11011759983376,228.11011759983376,229.58022669982165,[-0.06901041666666667],[-0.34375],[1],[0],[0],[1.5115370997227728],['target'],,,,A2,001,2024-10-07_20h11.13.283,untitled,2024.1.5,None,2024-10-07 20h11.23.586085 +0530,
133,0,133,0,229.62587819993496,,,,,,,,,,,,229.58306480012834,10,0.029679700266569853,229.62587819993496,229.62587819993496,231.34494940005243,[-0.4934895833333333],[0.2630208333333333],[1],[0],[0],[1.7614607997238636],['target'],,,,A2,001,2024-10-07_20h11.13.283,untitled,2024.1.5,None,2024-10-07 20h11.23.586085 +0530,
134,0,134,0,231.3882983000949,,,,,,,,,,,,231.34780219988897,10,0.029456899967044592,231.3882983000949,231.3882983000949,233.41028800001368,[0.2955729166666667],[0.11328125],[1],[0],[0],[2.0620059999637306],['target'],,,,A2,001,2024-10-07_20h11.13.283,untitled,2024.1.5,None,2024-10-07 20h11.23.586085 +0530,
135,0,135,0,233.45304000005126,,,,,,,,,,,,233.41311569977552,10,0.028349400032311678,233.45304000005126,233.45304000005126,235.6073762997985,[0.1953125],[-0.3723958333333333],[1],[0],[0],[2.193855300080031],['target'],,,,A2,001,2024-10-07_20h11.13.283,untitled,2024.1.5,None,2024-10-07 20h11.23.586085 +0530,
136,0,136,0,235.65144360018894,,,,,,,,,,,,235.6102315997705,10,0.029644299764186144,235.65144360018894,235.65144360018894,237.3722759000957,[-0.10286458333333333],[-0.21875],[1],[0],[0],[1.7616053000092506],['target'],,,,A2,001,2024-10-07_20h11.13.283,untitled,2024.1.5,None,2024-10-07 20h11.23.586085 +0530,
137,0,137,0,237.39853309979662,,,,,,,,,,,,237.37525419984013,5,0.015661200042814016,237.39853309979662,237.39853309979662,239.2876590997912,[-0.2942708333333333],[0.16927083333333334],[1],[0],[0],[1.9118749997578561],['target'],,,,A2,001,2024-10-07_20h11.13.283,untitled,2024.1.5,None,2024-10-07 20h11.23.586085 +0530,
138,0,138,0,239.33296030014753,,,,,,,,,,,,239.2904511000961,10,0.028837600257247686,239.33296030014753,239.33296030014753,241.2687931000255,[-0.2799479166666667],[0.38671875],[1],[0],[0],[1.9778956002555788],['target'],,,,A2,001,2024-10-07_20h11.13.283,untitled,2024.1.5,None,2024-10-07 20h11.23.586085 +0530,
139,0,139,0,241.2962055001408,,,,,,,,,,,,241.27183869993314,5,0.016005499754101038,241.2962055001408,241.2962055001408,242.81736540002748,[-0.3229166666666667],[0.0026041666666666665],[1],[0],[0],[1.5450670002028346],['target'],,,,A2,001,2024-10-07_20h11.13.283,untitled,2024.1.5,None,2024-10-07 20h11.23.586085 +0530,
140,0,140,0,242.86081650014967,,,,,,,,,,,,242.82021629996598,10,0.02887889975681901,242.86081650014967,242.86081650014967,244.03270759992301,[-0.14583333333333334],[0.18229166666666666],[1],[0],[0],[1.2120650000870228],['target'],,,,A2,001,2024-10-07_20h11.13.283,untitled,2024.1.5,None,2024-10-07 20h11.23.586085 +0530,
141,0,141,0,244.05771989980713,,,,,,,,,,,,244.03555800020695,5,0.01502319984138012,244.05771989980713,244.05771989980713,245.31491679977626,[-0.16927083333333334],[0.4205729166666667],[1],[0],[0],[1.2789394999854267],['target'],,,,A2,001,2024-10-07_20h11.13.283,untitled,2024.1.5,None,2024-10-07 20h11.23.586085 +0530,
142,0,142,0,245.35997769981623,,,,,,,,,,,,245.3177649001591,10,0.028979599941521883,245.35997769981623,245.35997769981623,246.87989909993485,[0.41015625],[0.4166666666666667],[1],[0],[0],[1.5617013000883162],['target'],,,,A2,001,2024-10-07_20h11.13.283,untitled,2024.1.5,None,2024-10-07 20h11.23.586085 +0530,
143,0,143,0,246.92318639997393,,,,,,,,,,,,246.88283010013402,10,0.029032799880951643,246.92318639997393,246.92318639997393,248.36174649978057,[-0.17708333333333334],[0.22135416666666666],[1],[0],[0],[1.4785738000646234],['target'],,,,A2,001,2024-10-07_20h11.13.283,untitled,2024.1.5,None,2024-10-07 20h11.23.586085 +0530,
144,0,144,0,248.40489570004866,,,,,,,,,,,,248.36462630005553,10,0.0293894000351429,248.40489570004866,248.40489570004866,250.47668679989874,[-0.009114583333333334],[-0.41015625],[1],[0],[0],[2.1115156998857856],['target'],,,,A2,001,2024-10-07_20h11.13.283,untitled,2024.1.5,None,2024-10-07 20h11.23.586085 +0530,
145,0,145,0,250.5195264001377,,,,,,,,,,,,250.4794851001352,10,0.029000899754464626,250.5195264001377,250.5195264001377,252.19206319982186,[0.15104166666666666],[0.18229166666666666],[1],[0],[0],[1.7121008997783065],['target'],,,,A2,001,2024-10-07_20h11.13.283,untitled,2024.1.5,None,2024-10-07 20h11.23.586085 +0530,
146,0,146,0,252.23597319982946,,,,,,,,,,,,252.19492899999022,10,0.028506200294941664,252.23597319982946,252.23597319982946,255.25499150017276,[0.3502604166666667],[-0.36328125],[1],[0],[0],[3.0595685997977853],['target'],,,,A2,001,2024-10-07_20h11.13.283,untitled,2024.1.5,None,2024-10-07 20h11.23.586085 +0530,
147,0,147,0,255.28067489992827,,,,,,,,,,,,255.25784910004586,5,0.014755100011825562,255.28067489992827,255.28067489992827,256.70372379990295,[-0.16927083333333334],[-0.33203125],[1],[0],[0],[1.4454446001909673],['target'],,,,A2,001,2024-10-07_20h11.13.283,untitled,2024.1.5,None,2024-10-07 20h11.23.586085 +0530,
148,0,148,0,256.72913999995217,,,,,,,,,,,,256.70659969979897,5,0.015428700018674135,256.72913999995217,256.72913999995217,258.2855821000412,[0.4153645833333333],[0.18229166666666666],[1],[0],[0],[1.5785230002366006],['target'],,,,A2,001,2024-10-07_20h11.13.283,untitled,2024.1.5,None,2024-10-07 20h11.23.586085 +0530,
149,0,149,0,258.3297433000989,,,,,,,,,,,,258.28847429994494,10,0.030234900303184986,258.3297433000989,258.3297433000989,260.7823013998568,[-0.4908854166666667],[0.4088541666666667],[1],[0],[0],[2.4933865000493824],['target'],,,,A2,001,2024-10-07_20h11.13.283,untitled,2024.1.5,None,2024-10-07 20h11.23.586085 +0530,
150,0,150,0,260.83004420017824,,,,,,,,,,,,260.7852575997822,10,0.030493599828332663,260.83004420017824,260.83004420017824,262.9137026001699,[-0.3216145833333333],[-0.13411458333333334],[1],[0],[0],[2.1280283997766674],['target'],,,,A2,001,2024-10-07_20h11.13.283,untitled,2024.1.5,None,2024-10-07 20h11.23.586085 +0530,
151,0,151,0,262.9572401000187,,,,,,,,,,,,262.91651690006256,10,0.029768800362944603,262.9572401000187,262.9572401000187,264.7950920998119,[-0.4518229166666667],[-0.43359375],[1],[0],[0],[1.8780551999807358],['target'],,,,A2,001,2024-10-07_20h11.13.283,untitled,2024.1.5,None,2024-10-07 20h11.23.586085 +0530,
152,0,152,0,264.83997419988737,,,,,,,,,,,,264.79786740010604,10,0.028971399646252394,264.83997419988737,264.83997419988737,268.12519849976525,[-0.11458333333333333],[0.4661458333333333],[1],[0],[0],[3.326865699607879],['target'],,,,A2,001,2024-10-07_20h11.13.283,untitled,2024.1.5,None,2024-10-07 20h11.23.586085 +0530,
153,0,153,0,268.1680797999725,,,,,,,,,,,,268.12808539997786,10,0.028434299863874912,268.1680797999725,268.1680797999725,270.09067190019414,[0.2513020833333333],[-0.2643229166666667],[1],[0],[0],[1.9621474999003112],['target'],,,,A2,001,2024-10-07_20h11.13.283,untitled,2024.1.5,None,2024-10-07 20h11.23.586085 +0530,
154,0,154,0,270.1376149998978,,,,,,,,,,,,270.09356930013746,10,0.029696499928832054,270.1376149998978,270.1376149998978,271.85556899989024,[-0.4778645833333333],[0.10416666666666667],[1],[0],[0],[1.7615658002905548],['target'],,,,A2,001,2024-10-07_20h11.13.283,untitled,2024.1.5,None,2024-10-07 20h11.23.586085 +0530,
155,0,155,0,271.8993139998056,,,,,,,,,,,,271.8586200000718,10,0.029422800056636333,271.8993139998056,271.8993139998056,273.8540945998393,[0.1640625],[0.20442708333333334],[1],[0],[0],[1.9949994999915361],['target'],,,,A2,001,2024-10-07_20h11.13.283,untitled,2024.1.5,None,2024-10-07 20h11.23.586085 +0530,
156,0,156,0,273.89715379988775,,,,,,,,,,,,273.8570452001877,10,0.02918689977377653,273.89715379988775,273.89715379988775,276.35064180009067,[0.07942708333333333],[-0.24348958333333334],[1],[0],[0],[2.4932281002402306],['target'],,,,A2,001,2024-10-07_20h11.13.283,untitled,2024.1.5,None,2024-10-07 20h11.23.586085 +0530,
157,0,157,0,276.37814110005274,,,,,,,,,,,,276.3535452000797,5,0.015383400022983551,276.37814110005274,276.37814110005274,277.80000700009987,[0.23828125],[0.2265625],[1],[0],[0],[1.4459818000905216],['target'],,,,A2,001,2024-10-07_20h11.13.283,untitled,2024.1.5,None,2024-10-07 20h11.23.586085 +0530,
158,0,158,0,277.90553920017555,,,,,,,,,,,,277.8028041999787,10,0.09012949978932738,277.90553920017555,277.90553920017555,279.08787810010836,[0.2747395833333333],[0.2994791666666667],[1],[0],[0],[1.2845915998332202],['target'],,,,A2,001,2024-10-07_20h11.13.283,untitled,2024.1.5,None,2024-10-07 20h11.23.586085 +0530,
159,0,159,0,279.13294859975576,,,,,,,,,,,,279.0932339001447,5,0.02700120024383068,279.13294859975576,279.13294859975576,280.4132237001322,[0.21354166666666666],[0.20572916666666666],[1],[0],[0],[1.3195754000917077],['target'],,,,A2,001,2024-10-07_20h11.13.283,untitled,2024.1.5,None,2024-10-07 20h11.23.586085 +0530,
160,0,160,0,280.43890989990905,,,,,,,,,,,,280.41622480005026,5,0.014762700069695711,280.43890989990905,280.43890989990905,282.74470649985597,[-0.17578125],[0.453125],[1],[0],[0],[2.3280511000193655],['target'],,,,A2,001,2024-10-07_20h11.13.283,untitled,2024.1.5,None,2024-10-07 20h11.23.586085 +0530,
161,0,161,0,282.7884398000315,,,,,,,,,,,,282.74754820019007,10,0.029194599948823452,282.7884398000315,282.7884398000315,285.3255786001682,[0.4010416666666667],[-0.296875],[1],[0],[0],[2.5776050998829305],['target'],,,,A2,001,2024-10-07_20h11.13.283,untitled,2024.1.5,None,2024-10-07 20h11.23.586085 +0530,
162,0,162,0,285.3521452997811,,,,,,,,,,,,285.32859080005437,5,0.016243099700659513,285.3521452997811,285.3521452997811,286.7415956999175,[-0.1640625],[0.07552083333333333],[1],[0],[0],[1.4124723002314568],['target'],,,,A2,001,2024-10-07_20h11.13.283,untitled,2024.1.5,None,2024-10-07 20h11.23.586085 +0530,
163,0,163,0,286.76771260006353,,,,,,,,,,,,286.744501600042,5,0.015028099995106459,286.76771260006353,286.76771260006353,287.72341049974784,[-0.0625],[0.10546875],[1],[0],[0],[0.9783990997821093],['target'],,,,A2,001,2024-10-07_20h11.13.283,untitled,2024.1.5,None,2024-10-07 20h11.23.586085 +0530,
164,0,164,0,287.7845390997827,,,,,,,,,,,,287.72672689985484,10,0.041370300110429525,287.7845390997827,287.7845390997827,289.6213448997587,[0.3072916666666667],[0.07552083333333333],[1],[0],[0],[1.89424329996109],['target'],,,,A2,001,2024-10-07_20h11.13.283,untitled,2024.1.5,None,2024-10-07 20h11.23.586085 +0530,
165,0,165,0,289.6648130998947,,,,,,,,,,,,289.62423679977655,10,0.02969460003077984,289.6648130998947,289.6648130998947,291.2030599000864,[-0.12890625],[0.09114583333333333],[1],[0],[0],[1.578418799676001],['target'],,,,A2,001,2024-10-07_20h11.13.283,untitled,2024.1.5,None,2024-10-07 20h11.23.586085 +0530,
166,0,166,0,291.22889460017905,,,,,,,,,,,,291.20590899977833,5,0.015823400113731623,291.22889460017905,291.22889460017905,292.6683885999955,[-0.3450520833333333],[0.0390625],[1],[0],[0],[1.46207690006122],['target'],,,,A2,001,2024-10-07_20h11.13.283,untitled,2024.1.5,None,2024-10-07 20h11.23.586085 +0530,
167,0,167,0,292.71286199986935,,,,,,,,,,,,292.6712461998686,10,0.029535300098359585,292.71286199986935,292.71286199986935,294.41714880010113,[0.2903645833333333],[0.029947916666666668],[1],[0],[0],[1.7454711999744177],['target'],,,,A2,001,2024-10-07_20h11.13.283,untitled,2024.1.5,None,2024-10-07 20h11.23.586085 +0530,
168,0,168,0,294.45962709980085,,,,,,,,,,,,294.42001730017364,10,0.028690199833363295,294.45962709980085,294.45962709980085,295.6814315998927,[0.2916666666666667],[0.1953125],[1],[0],[0],[1.2609917996451259],['target'],,,,A2,001,2024-10-07_20h11.13.283,untitled,2024.1.5,None,2024-10-07 20h11.23.586085 +0530,
169,0,169,0,295.72639090009034,,,,,,,,,,,,295.6842926000245,10,0.029733899980783463,295.72639090009034,295.72639090009034,297.68055539997295,[-0.30078125],[0.4322916666666667],[1],[0],[0],[1.9955282998271286],['target'],,,,A2,001,2024-10-07_20h11.13.283,untitled,2024.1.5,None,2024-10-07 20h11.23.586085 +0530,
170,0,170,0,297.7254488999024,,,,,,,,,,,,297.6835154998116,10,0.029006999917328358,297.7254488999024,297.7254488999024,299.11238930001855,[0.06770833333333333],[0.2513020833333333],[1],[0],[0],[1.4284008997492492],['target'],,,,A2,001,2024-10-07_20h11.13.283,untitled,2024.1.5,None,2024-10-07 20h11.23.586085 +0530,
171,0,171,0,299.1385739999823,,,,,,,,,,,,299.1152999000624,5,0.015425000339746475,299.1385739999823,299.1385739999823,300.74387660017237,[-0.06640625],[-0.11979166666666667],[1],[0],[0],[1.6281094001606107],['target'],,,,A2,001,2024-10-07_20h11.13.283,untitled,2024.1.5,None,2024-10-07 20h11.23.586085 +0530,
172,0,172,0,300.78965839976445,,,,,,,,,,,,300.74663210008293,10,0.029589500278234482,300.78965839976445,300.78965839976445,302.12565829977393,[-0.14192708333333334],[0.20052083333333334],[1],[0],[0],[1.3786279000341892],['target'],,,,A2,001,2024-10-07_20h11.13.283,untitled,2024.1.5,None,2024-10-07 20h11.23.586085 +0530,
173,0,173,0,302.1509893001057,,,,,,,,,,,,302.1285847998224,5,0.015218100044876337,302.1509893001057,302.1509893001057,303.5078533999622,[-0.2877604166666667],[0.16145833333333334],[1],[0],[0],[1.3787364000454545],['target'],,,,A2,001,2024-10-07_20h11.13.283,untitled,2024.1.5,None,2024-10-07 20h11.23.586085 +0530,
174,0,174,0,303.53443269990385,,,,,,,,,,,,303.5107613997534,5,0.015340300276875496,303.53443269990385,303.53443269990385,305.12287489976734,[-0.28125],[-0.3333333333333333],[1],[0],[0],[1.611681700218469],['target'],,,,A2,001,2024-10-07_20h11.13.283,untitled,2024.1.5,None,2024-10-07 20h11.23.586085 +0530,
175,0,175,0,305.14880929980427,,,,,,,,,,,,305.125741600059,5,0.015371200162917376,305.14880929980427,305.14880929980427,306.68808329990134,[0.009114583333333334],[-0.3880208333333333],[1],[0],[0],[1.561895000282675],['target'],,,,A2,001,2024-10-07_20h11.13.283,untitled,2024.1.5,None,2024-10-07 20h11.23.586085 +0530,
176,0,176,0,306.73277910007164,,,,,,,,,,,,306.6908919000998,10,0.029367899987846613,306.73277910007164,306.73277910007164,308.2196352998726,[0.26171875],[0.08984375],[1],[0],[0],[1.5283950995653868],['target'],,,,A2,001,2024-10-07_20h11.13.283,untitled,2024.1.5,None,2024-10-07 20h11.23.586085 +0530,
177,0,177,0,308.2459315001033,,,,,,,,,,,,308.22249329974875,5,0.015212299767881632,308.2459315001033,308.2459315001033,309.60140949999914,[-0.12239583333333333],[0.03515625],[1],[0],[0],[1.3784949998371303],['target'],,,,A2,001,2024-10-07_20h11.13.283,untitled,2024.1.5,None,2024-10-07 20h11.23.586085 +0530,
178,0,178,0,309.64555280003697,,,,,,,,,,,,309.60425279987976,10,0.029373500030487776,309.64555280003697,309.64555280003697,310.99984609987587,[-0.05078125],[-0.4453125],[1],[0],[0],[1.3951685000211],['target'],,,,A2,001,2024-10-07_20h11.13.283,untitled,2024.1.5,None,2024-10-07 20h11.23.586085 +0530,
179,0,179,0,311.02692480012774,,,,,,,,,,,,311.00265719974414,5,0.015617999713867903,311.02692480012774,311.02692480012774,312.9318985999562,[-0.4322916666666667],[0.3763020833333333],[1],[0],[0],[1.9287887997925282],['target'],,,,A2,001,2024-10-07_20h11.13.283,untitled,2024.1.5,None,2024-10-07 20h11.23.586085 +0530,
180,0,180,0,312.9743432998657,,,,,,,,,,,,312.9347308999859,10,0.02900539990514517,312.9743432998657,312.9743432998657,314.6797059001401,[-0.18229166666666666],[0.08203125],[1],[0],[0],[1.7445645998232067],['target'],,,,A2,001,2024-10-07_20h11.13.283,untitled,2024.1.5,None,2024-10-07 20h11.23.586085 +0530,
181,0,181,0,314.7062050998211,,,,,,,,,,,,314.6826435998082,5,0.015167400240898132,314.7062050998211,314.7062050998211,316.6283144997433,[0.22135416666666666],[0.4778645833333333],[1],[0],[0],[1.945241500157863],['target'],,,,A2,001,2024-10-07_20h11.13.283,untitled,2024.1.5,None,2024-10-07 20h11.23.586085 +0530,
182,0,182,0,316.67460240004584,,,,,,,,,,,,316.6311455001123,10,0.029342500027269125,316.67460240004584,316.67460240004584,318.1770378998481,[-0.4283854166666667],[0.3893229166666667],[1],[0],[0],[1.545447299722582],['target'],,,,A2,001,2024-10-07_20h11.13.283,untitled,2024.1.5,None,2024-10-07 20h11.23.586085 +0530,
183,0,183,0,318.2033979999833,,,,,,,,,,,,318.1799810999073,5,0.015438000205904245,318.2033979999833,318.2033979999833,319.7420923002064,[0.3528645833333333],[0.2903645833333333],[1],[0],[0],[1.5616262000985444],['target'],,,,A2,001,2024-10-07_20h11.13.283,untitled,2024.1.5,None,2024-10-07 20h11.23.586085 +0530,
184,0,184,0,319.7685165000148,,,,,,,,,,,,319.74520559981465,5,0.015612899791449308,319.7685165000148,319.7685165000148,321.30643399991095,[-0.11588541666666667],[0.4479166666666667],[1],[0],[0],[1.5608020997606218],['target'],,,,A2,001,2024-10-07_20h11.13.283,untitled,2024.1.5,None,2024-10-07 20h11.23.586085 +0530,
185,0,185,0,321.334315800108,,,,,,,,,,,,321.30951309995726,5,0.015909300185739994,321.334315800108,321.334315800108,322.422558600083,[-0.13932291666666666],[0.0546875],[1],[0],[0],[1.1126191997900605],['target'],,,,A2,001,2024-10-07_20h11.13.283,untitled,2024.1.5,None,2024-10-07 20h11.23.586085 +0530,
186,0,186,0,322.4494082001038,,,,,,,,,,,,322.4254227997735,5,0.015329699963331223,322.4494082001038,322.4494082001038,324.62037960020825,[0.3697916666666667],[0.19791666666666666],[1],[0],[0],[2.194552800152451],['target'],,,,A2,001,2024-10-07_20h11.13.283,untitled,2024.1.5,None,2024-10-07 20h11.23.586085 +0530,
187,0,187,0,324.6467980998568,,,,,,,,,,,,324.62322239996865,5,0.014958400279283524,324.6467980998568,324.6467980998568,325.9523240001872,[0.4049479166666667],[0.4322916666666667],[1],[0],[0],[1.3286402001976967],['target'],,,,A2,001,2024-10-07_20h11.13.283,untitled,2024.1.5,None,2024-10-07 20h11.23.586085 +0530,
188,0,188,0,325.9954915000126,,,,,,,,,,,,325.9554181001149,10,0.02895830012857914,325.9954915000126,325.9954915000126,327.78341169981286,[-0.4921875],[0.2916666666666667],[1],[0],[0],[1.8275672001764178],['target'],,,,A2,001,2024-10-07_20h11.13.283,untitled,2024.1.5,None,2024-10-07 20h11.23.586085 +0530,
189,0,189,0,327.8260297998786,,,,,,,,,,,,327.78623870015144,10,0.028460999950766563,327.8260297998786,327.8260297998786,329.4993491000496,[-0.4440104166666667],[-0.0078125],[1],[0],[0],[1.712701799813658],['target'],,,,A2,001,2024-10-07_20h11.13.283,untitled,2024.1.5,None,2024-10-07 20h11.23.586085 +0530,
190,0,190,0,329.527568699792,,,,,,,,,,,,329.5023237001151,5,0.01640870003029704,329.527568699792,329.527568699792,331.11425339989364,[-0.125],[0.026041666666666668],[1],[0],[0],[1.6114920997060835],['target'],,,,A2,001,2024-10-07_20h11.13.283,untitled,2024.1.5,None,2024-10-07 20h11.23.586085 +0530,
191,0,191,0,331.15962829999626,,,,,,,,,,,,331.1170882000588,10,0.029168699868023396,331.15962829999626,331.15962829999626,333.14475880004466,[0.3372395833333333],[-0.2786458333333333],[1],[0],[0],[2.027187000028789],['target'],,,,A2,001,2024-10-07_20h11.13.283,untitled,2024.1.5,None,2024-10-07 20h11.23.586085 +0530,
192,0,192,0,333.187530499883,,,,,,,,,,,,333.1477167000994,10,0.02875459985807538,333.187530499883,333.187530499883,335.0606529000215,[0.22786458333333334],[-0.4518229166666667],[1],[0],[0],[1.9125116001814604],['target'],,,,A2,001,2024-10-07_20h11.13.283,untitled,2024.1.5,None,2024-10-07 20h11.23.586085 +0530,
193,0,193,0,335.0876865000464,,,,,,,,,,,,335.0636418000795,5,0.015610500238835812,335.0876865000464,335.0876865000464,337.0743793998845,[0.4986979166666667],[0.055989583333333336],[1],[0],[0],[2.0103154997341335],['target'],,,,A2,001,2024-10-07_20h11.13.283,untitled,2024.1.5,None,2024-10-07 20h11.23.586085 +0530,
194,0,194,0,337.100347999949,,,,,,,,,,,,337.077188400086,5,0.015602000057697296,337.100347999949,337.100347999949,338.9567172997631,[-0.3203125],[-0.3020833333333333],[1],[0],[0],[1.8790059001185],['target'],,,,A2,001,2024-10-07_20h11.13.283,untitled,2024.1.5,None,2024-10-07 20h11.23.586085 +0530,
195,0,195,0,339.00139869982377,,,,,,,,,,,,338.95973510015756,10,0.028812700416892767,339.00139869982377,339.00139869982377,340.704784499947,[0.15494791666666666],[-0.01171875],[1],[0],[0],[1.744655600283295],['target'],,,,A2,001,2024-10-07_20h11.13.283,untitled,2024.1.5,None,2024-10-07 20h11.23.586085 +0530,
196,0,196,0,340.73090119985864,,,,,,,,,,,,340.70772759988904,5,0.01559449965134263,340.73090119985864,340.73090119985864,342.5361739997752,[-0.4140625],[-0.015625],[1],[0],[0],[1.827977600041777],['target'],,,,A2,001,2024-10-07_20h11.13.283,untitled,2024.1.5,None,2024-10-07 20h11.23.586085 +0530,
197,0,197,0,342.5830037998967,,,,,,,,,,,,342.53913540020585,10,0.02996289962902665,342.5830037998967,342.5830037998967,344.1511548999697,[0.140625],[-0.06640625],[1],[0],[0],[1.6115704998373985],['target'],,,,A2,001,2024-10-07_20h11.13.283,untitled,2024.1.5,None,2024-10-07 20h11.23.586085 +0530,
198,0,198,0,344.1967718000524,,,,,,,,,,,,344.1540584000759,10,0.0295247002504766,344.1967718000524,344.1967718000524,345.91573330014944,[0.2682291666666667],[-0.2955729166666667],[1],[0],[0],[1.7612259997986257],['target'],,,,A2,001,2024-10-07_20h11.13.283,untitled,2024.1.5,None,2024-10-07 20h11.23.586085 +0530,
199,0,199,0,345.942859900184,,,,,,,,,,,,345.91873309994116,5,0.015842000022530556,345.942859900184,345.942859900184,347.83160729985684,[-0.09244791666666667],[0.2747395833333333],[1],[0],[0],[1.9123254003934562],['target'],,,,A2,001,2024-10-07_20h11.13.283,untitled,2024.1.5,None,2024-10-07 20h11.23.586085 +0530,
,,,,,,,,,,,,,,,,,,,,,,,,,,,,,347.83383879996836,347.8459226000123,351.8426163000986,A2,001,2024-10-07_20h11.13.283,untitled,2024.1.5,None,2024-10-07 20h11.23.586085 +0530,
