trials.thisRepN,trials.thisTrialN,trials.thisN,trials.thisIndex,thisRow.t,notes,Hello.started,text_2.started,Hello.stopped,guidelines.started,guideline.started,key_resp.started,guidelines.stopped,key_resp.keys,key_resp.rt,key_resp.duration,trial.started,num_distr,mouse.started,polygon.started,target.started,trial.stopped,mouse.x,mouse.y,mouse.leftButton,mouse.midButton,mouse.rightButton,mouse.time,mouse.clicked_name,Thank_you.started,text_3.started,Thank_you.stopped,participant,session,date,expName,psychopyVersion,frameRate,expStart,
,,,,,,0.009371300227940083,0.018588900100439787,0.5024418001994491,,,,,,,,,,,,,,,,,,,,,,,,N3,001,2024-10-07_20h31.10.565,untitled,2024.1.5,None,2024-10-07 20h31.27.406187 +0530,
,,,,,,,,,0.5024756998755038,0.5195880001410842,0.5195880001410842,5.834270200226456,space,5.309072100091726,None,,,,,,,,,,,,,,,,,N3,001,2024-10-07_20h31.10.565,untitled,2024.1.5,None,2024-10-07 20h31.27.406187 +0530,
0,0,0,0,5.863014599774033,,,,,,,,,,,,5.836818099953234,5,0.020203200168907642,5.863014599774033,5.863014599774033,7.497865700162947,[-0.4479166666666667],[-0.2721354166666667],[1],[0],[0],[1.6604963997378945],['target'],,,,N3,001,2024-10-07_20h31.10.565,untitled,2024.1.5,None,2024-10-07 20h31.27.406187 +0530,
1,0,1,0,7.560953500214964,,,,,,,,,,,,7.5037384000606835,10,0.041557999793440104,7.560953500214964,7.560953500214964,9.42646799981594,[0.30859375],[0.4791666666666667],[1],[0],[0],[1.9222765997983515],['target'],,,,N3,001,2024-10-07_20h31.10.565,untitled,2024.1.5,None,2024-10-07 20h31.27.406187 +0530,
2,0,2,0,9.478385199792683,,,,,,,,,,,,9.42987409979105,10,0.0354610001668334,9.478385199792683,9.478385199792683,10.7920371000655,[0.3059895833333333],[0.2786458333333333],[1],[0],[0],[1.3616582998074591],['target'],,,,N3,001,2024-10-07_20h31.10.565,untitled,2024.1.5,None,2024-10-07 20h31.27.406187 +0530,
3,0,3,0,10.845852899830788,,,,,,,,,,,,10.795369400177151,10,0.037108400370925665,10.845852899830788,10.845852899830788,12.140468399971724,[0.4908854166666667],[0.2747395833333333],[1],[0],[0],[1.3446391001343727],['target'],,,,N3,001,2024-10-07_20h31.10.565,untitled,2024.1.5,None,2024-10-07 20h31.27.406187 +0530,
4,0,4,0,12.171431900002062,,,,,,,,,,,,12.143938099965453,5,0.01938740024343133,12.171431900002062,12.171431900002062,14.271447299979627,[0.3046875],[-0.3763020833333333],[1],[0],[0],[2.127022699918598],['target'],,,,N3,001,2024-10-07_20h31.10.565,untitled,2024.1.5,None,2024-10-07 20h31.27.406187 +0530,
5,0,5,0,14.336381800007075,,,,,,,,,,,,14.276640799827874,10,0.04793079989030957,14.336381800007075,14.336381800007075,16.004230999853462,[-0.47265625],[-0.3020833333333333],[1],[0],[0],[1.7270822999998927],['target'],,,,N3,001,2024-10-07_20h31.10.565,untitled,2024.1.5,None,2024-10-07 20h31.27.406187 +0530,
6,0,6,0,16.069890699815005,,,,,,,,,,,,16.008284400217235,10,0.04447849979624152,16.069890699815005,16.069890699815005,18.518275400158018,[-0.2708333333333333],[0.4140625],[1],[0],[0],[2.5095027000643313],['target'],,,,N3,001,2024-10-07_20h31.10.565,untitled,2024.1.5,None,2024-10-07 20h31.27.406187 +0530,
7,0,7,0,18.58771579992026,,,,,,,,,,,,18.5236873999238,10,0.04924670001491904,18.58771579992026,18.58771579992026,20.38327750004828,[-0.4140625],[-0.12890625],[1],[0],[0],[1.859164500143379],['target'],,,,N3,001,2024-10-07_20h31.10.565,untitled,2024.1.5,None,2024-10-07 20h31.27.406187 +0530,
8,0,8,0,20.410135299898684,,,,,,,,,,,,20.386231299955398,5,0.016956099774688482,20.410135299898684,20.410135299898684,22.031675400212407,[0.13671875],[0.11979166666666667],[1],[0],[0],[1.6449820003472269],['target'],,,,N3,001,2024-10-07_20h31.10.565,untitled,2024.1.5,None,2024-10-07 20h31.27.406187 +0530,
9,0,9,0,22.056729199830443,,,,,,,,,,,,22.034528899937868,5,0.015713300090283155,22.056729199830443,22.056729199830443,23.380699399858713,[0.41796875],[0.2565104166666667],[1],[0],[0],[1.3457577000372112],['target'],,,,N3,001,2024-10-07_20h31.10.565,untitled,2024.1.5,None,2024-10-07 20h31.27.406187 +0530,
10,0,10,0,23.40804889984429,,,,,,,,,,,,23.3838089001365,5,0.017710200045257807,23.40804889984429,23.40804889984429,25.045028400141746,[-0.13802083333333334],[0.3541666666666667],[1],[0],[0],[1.6607201998122036],['target'],,,,N3,001,2024-10-07_20h31.10.565,untitled,2024.1.5,None,2024-10-07 20h31.27.406187 +0530,
11,0,11,0,25.071123899891973,,,,,,,,,,,,25.04803470009938,5,0.01615560008212924,25.071123899891973,25.071123899891973,27.092557500116527,[-0.37890625],[-0.08072916666666667],[1],[0],[0],[2.0441406001336873],['target'],,,,N3,001,2024-10-07_20h31.10.565,untitled,2024.1.5,None,2024-10-07 20h31.27.406187 +0530,
12,0,12,0,27.118833200074732,,,,,,,,,,,,27.095491799991578,5,0.016168300062417984,27.118833200074732,27.118833200074732,29.57359760021791,[0.4596354166666667],[0.013020833333333334],[1],[0],[0],[2.4776591998524964],['target'],,,,N3,001,2024-10-07_20h31.10.565,untitled,2024.1.5,None,2024-10-07 20h31.27.406187 +0530,
13,0,13,0,29.616653999779373,,,,,,,,,,,,29.576466499827802,10,0.029575399588793516,29.616653999779373,29.616653999779373,31.456010300200433,[0.2864583333333333],[0.4440104166666667],[1],[0],[0],[1.8791235000826418],['target'],,,,N3,001,2024-10-07_20h31.10.565,untitled,2024.1.5,None,2024-10-07 20h31.27.406187 +0530,
14,0,14,0,31.48148229997605,,,,,,,,,,,,31.45894950022921,5,0.015596600249409676,31.48148229997605,31.48148229997605,33.370953099802136,[-0.3151041666666667],[0.052083333333333336],[1],[0],[0],[1.911457599606365],['target'],,,,N3,001,2024-10-07_20h31.10.565,untitled,2024.1.5,None,2024-10-07 20h31.27.406187 +0530,
15,0,15,0,33.39928789995611,,,,,,,,,,,,33.37605149997398,5,0.01620269985869527,33.39928789995611,33.39928789995611,35.05152409989387,[0.3567708333333333],[0.16796875],[1],[0],[0],[1.675065899733454],['target'],,,,N3,001,2024-10-07_20h31.10.565,untitled,2024.1.5,None,2024-10-07 20h31.27.406187 +0530,
16,0,16,0,35.07726630009711,,,,,,,,,,,,35.05451019993052,5,0.015781600028276443,35.07726630009711,35.07726630009711,37.25030939979479,[-0.14973958333333334],[0.484375],[1],[0],[0],[2.1953703998588026],['target'],,,,N3,001,2024-10-07_20h31.10.565,untitled,2024.1.5,None,2024-10-07 20h31.27.406187 +0530,
17,0,17,0,37.27771659987047,,,,,,,,,,,,37.25378239993006,5,0.016162500251084566,37.27771659987047,37.27771659987047,39.130861499812454,[-0.4322916666666667],[-0.3502604166666667],[1],[0],[0],[1.8766860999166965],['target'],,,,N3,001,2024-10-07_20h31.10.565,untitled,2024.1.5,None,2024-10-07 20h31.27.406187 +0530,
18,0,18,0,39.15649939980358,,,,,,,,,,,,39.133834099862725,5,0.015557699836790562,39.15649939980358,39.15649939980358,40.87926519988105,[0.1328125],[0.0013020833333333333],[1],[0],[0],[1.7450019996613264],['target'],,,,N3,001,2024-10-07_20h31.10.565,untitled,2024.1.5,None,2024-10-07 20h31.27.406187 +0530,
19,0,19,0,40.90534499986097,,,,,,,,,,,,40.88234829995781,5,0.015873499680310488,40.90534499986097,40.90534499986097,42.444470799993724,[-0.2526041666666667],[-0.2942708333333333],[1],[0],[0],[1.5616909000091255],['target'],,,,N3,001,2024-10-07_20h31.10.565,untitled,2024.1.5,None,2024-10-07 20h31.27.406187 +0530,
20,0,20,0,42.47115209978074,,,,,,,,,,,,42.44750430015847,5,0.01639780029654503,42.47115209978074,42.47115209978074,43.8762811999768,[-0.28515625],[0.20572916666666666],[1],[0],[0],[1.4283408001065254],['target'],,,,N3,001,2024-10-07_20h31.10.565,untitled,2024.1.5,None,2024-10-07 20h31.27.406187 +0530,
21,0,21,0,43.90229600016028,,,,,,,,,,,,43.87932009994984,5,0.015991000458598137,43.90229600016028,43.90229600016028,45.70816250005737,[0.22526041666666666],[0.43359375],[1],[0],[0],[1.8284266996197402],['target'],,,,N3,001,2024-10-07_20h31.10.565,untitled,2024.1.5,None,2024-10-07 20h31.27.406187 +0530,
22,0,22,0,45.73650259990245,,,,,,,,,,,,45.71174999978393,5,0.01711949985474348,45.73650259990245,45.73650259990245,47.106951099820435,[-0.05078125],[0.3841145833333333],[1],[0],[0],[1.3946829000487924],['target'],,,,N3,001,2024-10-07_20h31.10.565,untitled,2024.1.5,None,2024-10-07 20h31.27.406187 +0530,
23,0,23,0,47.140944600105286,,,,,,,,,,,,47.11029289988801,5,0.020799499936401844,47.140944600105286,47.140944600105286,48.538439999800175,[0.3229166666666667],[0.2669270833333333],[1],[0],[0],[1.427534599788487],['target'],,,,N3,001,2024-10-07_20h31.10.565,untitled,2024.1.5,None,2024-10-07 20h31.27.406187 +0530,
24,0,24,0,48.593024500180036,,,,,,,,,,,,48.542084199842066,10,0.03808379964902997,48.593024500180036,48.593024500180036,50.836099800188094,[0.23307291666666666],[-0.3854166666666667],[1],[0],[0],[2.2934154998511076],['target'],,,,N3,001,2024-10-07_20h31.10.565,untitled,2024.1.5,None,2024-10-07 20h31.27.406187 +0530,
25,0,25,0,50.879071299917996,,,,,,,,,,,,50.83936179988086,10,0.029907400254160166,50.879071299917996,50.879071299917996,53.23333049984649,[-0.20182291666666666],[0.24348958333333334],[1],[0],[0],[2.393579199910164],['target'],,,,N3,001,2024-10-07_20h31.10.565,untitled,2024.1.5,None,2024-10-07 20h31.27.406187 +0530,
26,0,26,0,53.27704000007361,,,,,,,,,,,,53.23628789978102,10,0.030684600118547678,53.27704000007361,53.27704000007361,54.39983659982681,[-0.11197916666666667],[0.1796875],[1],[0],[0],[1.1631406000815332],['target'],,,,N3,001,2024-10-07_20h31.10.565,untitled,2024.1.5,None,2024-10-07 20h31.27.406187 +0530,
27,0,27,0,54.44340620003641,,,,,,,,,,,,54.40294010005891,10,0.030283399857580662,54.44340620003641,54.44340620003641,56.214064499828964,[0.08463541666666667],[-0.10026041666666667],[1],[0],[0],[1.8107006000354886],['target'],,,,N3,001,2024-10-07_20h31.10.565,untitled,2024.1.5,None,2024-10-07 20h31.27.406187 +0530,
28,0,28,0,56.239206600002944,,,,,,,,,,,,56.217199500184506,5,0.015427599661052227,56.239206600002944,56.239206600002944,57.8296360000968,[-0.19401041666666666],[-0.21614583333333334],[1],[0],[0],[1.6120082000270486],['target'],,,,N3,001,2024-10-07_20h31.10.565,untitled,2024.1.5,None,2024-10-07 20h31.27.406187 +0530,
29,0,29,0,57.85485350014642,,,,,,,,,,,,57.83263899991289,5,0.015438899863511324,57.85485350014642,57.85485350014642,59.61144350003451,[-0.1328125],[0.3333333333333333],[1],[0],[0],[1.778274199925363],['target'],,,,N3,001,2024-10-07_20h31.10.565,untitled,2024.1.5,None,2024-10-07 20h31.27.406187 +0530,
30,0,30,0,59.65753239998594,,,,,,,,,,,,59.61440060008317,10,0.030298199970275164,59.65753239998594,59.65753239998594,61.042803099844605,[-0.34375],[0.4752604166666667],[1],[0],[0],[1.4279444003477693],['target'],,,,N3,001,2024-10-07_20h31.10.565,untitled,2024.1.5,None,2024-10-07 20h31.27.406187 +0530,
31,0,31,0,61.06901919981465,,,,,,,,,,,,61.04578279983252,5,0.015930599998682737,61.06901919981465,61.06901919981465,62.84126430004835,[0.2526041666666667],[-0.05859375],[1],[0],[0],[1.7949723000638187],['target'],,,,N3,001,2024-10-07_20h31.10.565,untitled,2024.1.5,None,2024-10-07 20h31.27.406187 +0530,
32,0,32,0,62.8870987999253,,,,,,,,,,,,62.845634900033474,10,0.030799700412899256,62.8870987999253,62.8870987999253,64.5569903999567,[-0.026041666666666668],[0.12630208333333334],[1],[0],[0],[1.710917599964887],['target'],,,,N3,001,2024-10-07_20h31.10.565,untitled,2024.1.5,None,2024-10-07 20h31.27.406187 +0530,
33,0,33,0,64.58307150006294,,,,,,,,,,,,64.55998610006645,5,0.015884699765592813,64.58307150006294,64.58307150006294,66.40472250012681,[0.16276041666666666],[0.06640625],[1],[0],[0],[1.8443057001568377],['target'],,,,N3,001,2024-10-07_20h31.10.565,untitled,2024.1.5,None,2024-10-07 20h31.27.406187 +0530,
34,0,34,0,66.43054130021483,,,,,,,,,,,,66.40761299990118,5,0.015535699669271708,66.43054130021483,66.43054130021483,68.03657690016553,[-0.2513020833333333],[-0.1796875],[1],[0],[0],[1.6285307998768985],['target'],,,,N3,001,2024-10-07_20h31.10.565,untitled,2024.1.5,None,2024-10-07 20h31.27.406187 +0530,
35,0,35,0,68.06257090019062,,,,,,,,,,,,68.03949389979243,5,0.016055800020694733,68.06257090019062,68.06257090019062,70.28398919990286,[0.48046875],[-0.0234375],[1],[0],[0],[2.2440980998799205],['target'],,,,N3,001,2024-10-07_20h31.10.565,untitled,2024.1.5,None,2024-10-07 20h31.27.406187 +0530,
36,0,36,0,70.31171989999712,,,,,,,,,,,,70.28690219996497,5,0.017418700270354748,70.31171989999712,70.31171989999712,71.58293920010328,[0.15234375],[-0.010416666666666666],[1],[0],[0],[1.2955934996716678],['target'],,,,N3,001,2024-10-07_20h31.10.565,untitled,2024.1.5,None,2024-10-07 20h31.27.406187 +0530,
37,0,37,0,71.60894339997321,,,,,,,,,,,,71.58589700004086,5,0.01571460021659732,71.60894339997321,71.60894339997321,73.16454729996622,[0.21614583333333334],[0.4270833333333333],[1],[0],[0],[1.578231600113213],['target'],,,,N3,001,2024-10-07_20h31.10.565,untitled,2024.1.5,None,2024-10-07 20h31.27.406187 +0530,
38,0,38,0,73.20911659998819,,,,,,,,,,,,73.16751749999821,10,0.030865299981087446,73.20911659998819,73.20911659998819,75.4284581001848,[-0.15494791666666666],[-0.4049479166666667],[1],[0],[0],[2.260468500200659],['target'],,,,N3,001,2024-10-07_20h31.10.565,untitled,2024.1.5,None,2024-10-07 20h31.27.406187 +0530,
39,0,39,0,75.45514219999313,,,,,,,,,,,,75.43135390011594,5,0.01636800030246377,75.45514219999313,75.45514219999313,77.0110162999481,[-0.0234375],[-0.06380208333333333],[1],[0],[0],[1.5792441996745765],['target'],,,,N3,001,2024-10-07_20h31.10.565,untitled,2024.1.5,None,2024-10-07 20h31.27.406187 +0530,
40,0,40,0,77.03680060012266,,,,,,,,,,,,77.01388779981062,5,0.01543120015412569,77.03680060012266,77.03680060012266,78.57536819996312,[-0.4661458333333333],[-0.3203125],[1],[0],[0],[1.5609836000949144],['target'],,,,N3,001,2024-10-07_20h31.10.565,untitled,2024.1.5,None,2024-10-07 20h31.27.406187 +0530,
41,0,41,0,78.61955749988556,,,,,,,,,,,,78.57828979985788,10,0.03006109967827797,78.61955749988556,78.61955749988556,81.43958040000871,[-0.21614583333333334],[0.3776041666666667],[1],[0],[0],[2.860864100046456],['target'],,,,N3,001,2024-10-07_20h31.10.565,untitled,2024.1.5,None,2024-10-07 20h31.27.406187 +0530,
42,0,42,0,81.48386920010671,,,,,,,,,,,,81.44285670015961,10,0.030028500128537416,81.48386920010671,81.48386920010671,83.5372600001283,[0.3294270833333333],[-0.00390625],[1],[0],[0],[2.0939618004485965],['target'],,,,N3,001,2024-10-07_20h31.10.565,untitled,2024.1.5,None,2024-10-07 20h31.27.406187 +0530,
43,0,43,0,83.58265260001644,,,,,,,,,,,,83.54030890017748,10,0.0310035003349185,83.58265260001644,83.58265260001644,85.0035166000016,[0.2877604166666667],[-0.053385416666666664],[1],[0],[0],[1.4627358000725508],['target'],,,,N3,001,2024-10-07_20h31.10.565,untitled,2024.1.5,None,2024-10-07 20h31.27.406187 +0530,
44,0,44,0,85.0476416000165,,,,,,,,,,,,85.00642179977149,10,0.029769600369036198,85.0476416000165,85.0476416000165,86.90079349977896,[0.055989583333333336],[0.029947916666666668],[1],[0],[0],[1.8939467002637684],['target'],,,,N3,001,2024-10-07_20h31.10.565,untitled,2024.1.5,None,2024-10-07 20h31.27.406187 +0530,
45,0,45,0,86.92683209991083,,,,,,,,,,,,86.90387400006875,5,0.01532740006223321,86.92683209991083,86.92683209991083,88.94995190016925,[0.12239583333333333],[-0.2864583333333333],[1],[0],[0],[2.0456206002272666],['target'],,,,N3,001,2024-10-07_20h31.10.565,untitled,2024.1.5,None,2024-10-07 20h31.27.406187 +0530,
46,0,46,0,88.97722159978002,,,,,,,,,,,,88.95280280010775,5,0.016274599824100733,88.97722159978002,88.97722159978002,90.76342350011691,[0.4739583333333333],[-0.25390625],[1],[0],[0],[1.8102151998318732],['target'],,,,N3,001,2024-10-07_20h31.10.565,untitled,2024.1.5,None,2024-10-07 20h31.27.406187 +0530,
47,0,47,0,90.8083990002051,,,,,,,,,,,,90.76634569978341,10,0.02973160007968545,90.8083990002051,90.8083990002051,92.9110900000669,[-0.4270833333333333],[-0.09895833333333333],[1],[0],[0],[2.144379800185561],['target'],,,,N3,001,2024-10-07_20h31.10.565,untitled,2024.1.5,None,2024-10-07 20h31.27.406187 +0530,
48,0,48,0,92.93827949976549,,,,,,,,,,,,92.91407370008528,5,0.016359900124371052,92.93827949976549,92.93827949976549,95.01041329978034,[0.3971354166666667],[-0.0859375],[1],[0],[0],[2.095782299991697],['target'],,,,N3,001,2024-10-07_20h31.10.565,untitled,2024.1.5,None,2024-10-07 20h31.27.406187 +0530,
49,0,49,0,95.0542359999381,,,,,,,,,,,,95.01334499986842,10,0.029789799824357033,95.0542359999381,95.0542359999381,97.10763779981062,[-0.4322916666666667],[0.00390625],[1],[0],[0],[2.0937761003151536],['target'],,,,N3,001,2024-10-07_20h31.10.565,untitled,2024.1.5,None,2024-10-07 20h31.27.406187 +0530,
50,0,50,0,97.15168960019946,,,,,,,,,,,,97.11058280011639,10,0.029702499974519014,97.15168960019946,97.15168960019946,99.72146489983425,[0.3216145833333333],[0.17447916666666666],[1],[0],[0],[2.6104962998069823],['target'],,,,N3,001,2024-10-07_20h31.10.565,untitled,2024.1.5,None,2024-10-07 20h31.27.406187 +0530,
51,0,51,0,99.74781569978222,,,,,,,,,,,,99.72444450017065,5,0.015657400246709585,99.74781569978222,99.74781569978222,101.52027390012518,[0.06901041666666667],[-0.16276041666666666],[1],[0],[0],[1.7953698998317122],['target'],,,,N3,001,2024-10-07_20h31.10.565,untitled,2024.1.5,None,2024-10-07 20h31.27.406187 +0530,
52,0,52,0,101.56530780019239,,,,,,,,,,,,101.52336440002546,10,0.03051029983907938,101.56530780019239,101.56530780019239,103.55173859978095,[-0.4973958333333333],[-0.4283854166666667],[1],[0],[0],[2.027887400239706],['target'],,,,N3,001,2024-10-07_20h31.10.565,untitled,2024.1.5,None,2024-10-07 20h31.27.406187 +0530,
53,0,53,0,103.59649229981005,,,,,,,,,,,,103.55488480022177,10,0.029782800003886223,103.59649229981005,103.59649229981005,107.44736139988527,[-0.4817708333333333],[0.4765625],[1],[0],[0],[3.8919437997974455],['target'],,,,N3,001,2024-10-07_20h31.10.565,untitled,2024.1.5,None,2024-10-07 20h31.27.406187 +0530,
54,0,54,0,107.47399730002508,,,,,,,,,,,,107.45030470006168,5,0.015544199850410223,107.47399730002508,107.47399730002508,109.24571740021929,[0.016927083333333332],[0.4270833333333333],[1],[0],[0],[1.7949814000166953],['target'],,,,N3,001,2024-10-07_20h31.10.565,untitled,2024.1.5,None,2024-10-07 20h31.27.406187 +0530,
55,0,55,0,109.2913127001375,,,,,,,,,,,,109.24878290016204,10,0.03176120016723871,109.2913127001375,109.2913127001375,111.82653219997883,[0.4791666666666667],[-0.2708333333333333],[1],[0],[0],[2.5773737002164125],['target'],,,,N3,001,2024-10-07_20h31.10.565,untitled,2024.1.5,None,2024-10-07 20h31.27.406187 +0530,
56,0,56,0,111.870042799972,,,,,,,,,,,,111.82940129982308,10,0.02964079985395074,111.870042799972,111.870042799972,113.70771689992398,[-0.3580729166666667],[-0.15625],[1],[0],[0],[1.877859900239855],['target'],,,,N3,001,2024-10-07_20h31.10.565,untitled,2024.1.5,None,2024-10-07 20h31.27.406187 +0530,
57,0,57,0,113.75114609999582,,,,,,,,,,,,113.71073159994557,10,0.02930700033903122,113.75114609999582,113.75114609999582,116.48867669980973,[-0.3723958333333333],[0.2604166666666667],[1],[0],[0],[2.7775102998130023],['target'],,,,N3,001,2024-10-07_20h31.10.565,untitled,2024.1.5,None,2024-10-07 20h31.27.406187 +0530,
58,0,58,0,116.5144854998216,,,,,,,,,,,,116.49163729976863,5,0.01574180042371154,116.5144854998216,116.5144854998216,118.15524420002475,[-0.203125],[0.03515625],[1],[0],[0],[1.6630725003778934],['target'],,,,N3,001,2024-10-07_20h31.10.565,untitled,2024.1.5,None,2024-10-07 20h31.27.406187 +0530,
59,0,59,0,118.22495470009744,,,,,,,,,,,,118.16036689979956,10,0.04589360021054745,118.22495470009744,118.22495470009744,119.60236900020391,[-0.21614583333333334],[-0.140625],[1],[0],[0],[1.4415468997322023],['target'],,,,N3,001,2024-10-07_20h31.10.565,untitled,2024.1.5,None,2024-10-07 20h31.27.406187 +0530,
60,0,60,0,119.62850369978696,,,,,,,,,,,,119.60535559989512,5,0.01579819992184639,119.62850369978696,119.62850369978696,121.11727820010856,[-0.052083333333333336],[-0.028645833333333332],[1],[0],[0],[1.511471699923277],['target'],,,,N3,001,2024-10-07_20h31.10.565,untitled,2024.1.5,None,2024-10-07 20h31.27.406187 +0530,
61,0,61,0,121.16102120000869,,,,,,,,,,,,121.1201696000062,10,0.029851300176233053,121.16102120000869,121.16102120000869,122.78223170014098,[-0.3411458333333333],[-0.2825520833333333],[1],[0],[0],[1.661627700086683],['target'],,,,N3,001,2024-10-07_20h31.10.565,untitled,2024.1.5,None,2024-10-07 20h31.27.406187 +0530,
62,0,62,0,122.80819830019027,,,,,,,,,,,,122.78520300006494,5,0.015454899985343218,122.80819830019027,122.80819830019027,124.66411919984967,[-0.3502604166666667],[-0.2526041666666667],[1],[0],[0],[1.8784109000116587],['target'],,,,N3,001,2024-10-07_20h31.10.565,untitled,2024.1.5,None,2024-10-07 20h31.27.406187 +0530,
63,0,63,0,124.69017070019618,,,,,,,,,,,,124.66760559985414,5,0.01537899998947978,124.69017070019618,124.69017070019618,126.0462640998885,[-0.40625],[-0.3671875],[1],[0],[0],[1.3781590000726283],['target'],,,,N3,001,2024-10-07_20h31.10.565,untitled,2024.1.5,None,2024-10-07 20h31.27.406187 +0530,
64,0,64,0,126.0907486001961,,,,,,,,,,,,126.04916850011796,10,0.030512799974530935,126.0907486001961,126.0907486001961,127.79441280011088,[-0.3346354166666667],[0.2630208333333333],[1],[0],[0],[1.7448037001304328],['target'],,,,N3,001,2024-10-07_20h31.10.565,untitled,2024.1.5,None,2024-10-07 20h31.27.406187 +0530,
65,0,65,0,127.840046599973,,,,,,,,,,,,127.79754059994593,10,0.030825200024992228,127.840046599973,127.840046599973,129.17631789995357,[-0.1015625],[0.061197916666666664],[1],[0],[0],[1.3782442002557218],['target'],,,,N3,001,2024-10-07_20h31.10.565,untitled,2024.1.5,None,2024-10-07 20h31.27.406187 +0530,
66,0,66,0,129.20627960003912,,,,,,,,,,,,129.17922799987718,5,0.01823979988694191,129.20627960003912,129.20627960003912,130.9246975001879,[0.18229166666666666],[-0.4518229166666667],[1],[0],[0],[1.7450386001728475],['target'],,,,N3,001,2024-10-07_20h31.10.565,untitled,2024.1.5,None,2024-10-07 20h31.27.406187 +0530,
67,0,67,0,130.9691917002201,,,,,,,,,,,,130.92769870022312,10,0.03048379998654127,130.9691917002201,130.9691917002201,132.9055797001347,[0.4518229166666667],[-0.16796875],[1],[0],[0],[1.9773718998767436],['target'],,,,N3,001,2024-10-07_20h31.10.565,untitled,2024.1.5,None,2024-10-07 20h31.27.406187 +0530,
68,0,68,0,132.9315618998371,,,,,,,,,,,,132.90855999989435,5,0.015631400048732758,132.9315618998371,132.9315618998371,134.93764579994604,[-0.24088541666666666],[0.1484375],[1],[0],[0],[2.02864950010553],['target'],,,,N3,001,2024-10-07_20h31.10.565,untitled,2024.1.5,None,2024-10-07 20h31.27.406187 +0530,
69,0,69,0,134.96493950020522,,,,,,,,,,,,134.94065089989454,5,0.016463400330394506,134.96493950020522,134.96493950020522,136.56926319980994,[-0.48828125],[-0.1171875],[1],[0],[0],[1.6280601001344621],['target'],,,,N3,001,2024-10-07_20h31.10.565,untitled,2024.1.5,None,2024-10-07 20h31.27.406187 +0530,
70,0,70,0,136.61454629991204,,,,,,,,,,,,136.57218040013686,10,0.030693100299686193,136.61454629991204,136.61454629991204,138.2497086999938,[0.022135416666666668],[-0.24348958333333334],[1],[0],[0],[1.6771010998636484],['target'],,,,N3,001,2024-10-07_20h31.10.565,untitled,2024.1.5,None,2024-10-07 20h31.27.406187 +0530,
71,0,71,0,138.27558889985085,,,,,,,,,,,,138.25265400018543,5,0.015982099808752537,138.27558889985085,138.27558889985085,139.64976800000295,[0.09765625],[-0.17447916666666666],[1],[0],[0],[1.3966703000478446],['target'],,,,N3,001,2024-10-07_20h31.10.565,untitled,2024.1.5,None,2024-10-07 20h31.27.406187 +0530,
72,0,72,0,139.6941654002294,,,,,,,,,,,,139.65272979997098,10,0.03119769971817732,139.6941654002294,139.6941654002294,142.14688770007342,[-0.055989583333333336],[-0.009114583333333334],[1],[0],[0],[2.493682200089097],['target'],,,,N3,001,2024-10-07_20h31.10.565,untitled,2024.1.5,None,2024-10-07 20h31.27.406187 +0530,
73,0,73,0,142.17297599976882,,,,,,,,,,,,142.14993500011042,5,0.01572010014206171,142.17297599976882,142.17297599976882,144.32800670014694,[-0.2578125],[0.4140625],[1],[0],[0],[2.1776093002408743],['target'],,,,N3,001,2024-10-07_20h31.10.565,untitled,2024.1.5,None,2024-10-07 20h31.27.406187 +0530,
74,0,74,0,144.35301849991083,,,,,,,,,,,,144.33096880000085,5,0.015631299931555986,144.35301849991083,144.35301849991083,145.76020989986137,[-0.2526041666666667],[0.11328125],[1],[0],[0],[1.428830400109291],['target'],,,,N3,001,2024-10-07_20h31.10.565,untitled,2024.1.5,None,2024-10-07 20h31.27.406187 +0530,
75,0,75,0,145.78532399982214,,,,,,,,,,,,145.7630893997848,5,0.015449099708348513,145.78532399982214,145.78532399982214,147.70791660016403,[0.4661458333333333],[0.11328125],[1],[0],[0],[1.9443914000876248],['target'],,,,N3,001,2024-10-07_20h31.10.565,untitled,2024.1.5,None,2024-10-07 20h31.27.406187 +0530,
76,0,76,0,147.7517133001238,,,,,,,,,,,,147.71089019998908,10,0.029795799870043993,147.7517133001238,147.7517133001238,149.83912960020825,[0.23697916666666666],[-0.0234375],[1],[0],[0],[2.1278458000160754],['target'],,,,N3,001,2024-10-07_20h31.10.565,untitled,2024.1.5,None,2024-10-07 20h31.27.406187 +0530,
77,0,77,0,149.88267910014838,,,,,,,,,,,,149.84212169982493,10,0.02924990002065897,149.88267910014838,149.88267910014838,152.08733549993485,[0.48046875],[-0.4192708333333333],[1],[0],[0],[2.24476550007239],['target'],,,,N3,001,2024-10-07_20h31.10.565,untitled,2024.1.5,None,2024-10-07 20h31.27.406187 +0530,
78,0,78,0,152.1135967001319,,,,,,,,,,,,152.09029289986938,5,0.015814899932593107,152.1135967001319,152.1135967001319,155.8332283999771,[-0.020833333333333332],[0.48046875],[1],[0],[0],[3.742492100223899],['target'],,,,N3,001,2024-10-07_20h31.10.565,untitled,2024.1.5,None,2024-10-07 20h31.27.406187 +0530,
79,0,79,0,155.8777626999654,,,,,,,,,,,,155.83630109997466,10,0.030583399813622236,155.8777626999654,155.8777626999654,157.14814320020378,[-0.0703125],[0.3125],[1],[0],[0],[1.3114816998131573],['target'],,,,N3,001,2024-10-07_20h31.10.565,untitled,2024.1.5,None,2024-10-07 20h31.27.406187 +0530,
80,0,80,0,157.1749602998607,,,,,,,,,,,,157.1512170000933,5,0.015679599717259407,157.1749602998607,157.1749602998607,158.59729749988765,[-0.3606770833333333],[0.15885416666666666],[1],[0],[0],[1.4456394002772868],['target'],,,,N3,001,2024-10-07_20h31.10.565,untitled,2024.1.5,None,2024-10-07 20h31.27.406187 +0530,
81,0,81,0,158.62417839979753,,,,,,,,,,,,158.60020399978384,5,0.015542199835181236,158.62417839979753,158.62417839979753,160.06282510003075,[-0.23307291666666666],[0.07682291666666667],[1],[0],[0],[1.4621009998954833],['target'],,,,N3,001,2024-10-07_20h31.10.565,untitled,2024.1.5,None,2024-10-07 20h31.27.406187 +0530,
82,0,82,0,160.0893369000405,,,,,,,,,,,,160.0657378998585,5,0.01616480015218258,160.0893369000405,160.0893369000405,162.5442673000507,[-0.3932291666666667],[-0.4453125],[1],[0],[0],[2.4781034998595715],['target'],,,,N3,001,2024-10-07_20h31.10.565,untitled,2024.1.5,None,2024-10-07 20h31.27.406187 +0530,
83,0,83,0,162.57039600005373,,,,,,,,,,,,162.54721560003236,5,0.01563710020855069,162.57039600005373,162.57039600005373,164.32516179978848,[0.0859375],[0.43359375],[1],[0],[0],[1.77746000001207],['target'],,,,N3,001,2024-10-07_20h31.10.565,untitled,2024.1.5,None,2024-10-07 20h31.27.406187 +0530,
84,0,84,0,164.3512585000135,,,,,,,,,,,,164.32810109993443,5,0.01557180006057024,164.3512585000135,164.3512585000135,166.15714369993657,[0.41796875],[-0.0859375],[1],[0],[0],[1.8285680003464222],['target'],,,,N3,001,2024-10-07_20h31.10.565,untitled,2024.1.5,None,2024-10-07 20h31.27.406187 +0530,
85,0,85,0,166.20111830020323,,,,,,,,,,,,166.160058000125,10,0.02983959997072816,166.20111830020323,166.20111830020323,169.00474670017138,[-0.3580729166666667],[-0.3815104166666667],[1],[0],[0],[2.8441147999837995],['target'],,,,N3,001,2024-10-07_20h31.10.565,untitled,2024.1.5,None,2024-10-07 20h31.27.406187 +0530,
86,0,86,0,169.0482139000669,,,,,,,,,,,,169.00764589989558,10,0.02929560001939535,169.0482139000669,169.0482139000669,170.93589190021157,[-0.28125],[-0.059895833333333336],[1],[0],[0],[1.927664800081402],['target'],,,,N3,001,2024-10-07_20h31.10.565,untitled,2024.1.5,None,2024-10-07 20h31.27.406187 +0530,
87,0,87,0,170.97938919998705,,,,,,,,,,,,170.9389065997675,10,0.029383900109678507,170.97938919998705,170.97938919998705,172.8998440997675,[-0.4700520833333333],[0.4869791666666667],[1],[0],[0],[1.9605009998194873],['target'],,,,N3,001,2024-10-07_20h31.10.565,untitled,2024.1.5,None,2024-10-07 20h31.27.406187 +0530,
88,0,88,0,172.92616409994662,,,,,,,,,,,,172.90280329994857,5,0.015716500114649534,172.92616409994662,172.92616409994662,175.2314092000015,[0.4947916666666667],[0.18098958333333334],[1],[0],[0],[2.328170600347221],['target'],,,,N3,001,2024-10-07_20h31.10.565,untitled,2024.1.5,None,2024-10-07 20h31.27.406187 +0530,
89,0,89,0,175.27563349995762,,,,,,,,,,,,175.2350646997802,10,0.02983729960396886,175.27563349995762,175.27563349995762,176.7291737999767,[0.3372395833333333],[0.3606770833333333],[1],[0],[0],[1.493693399708718],['target'],,,,N3,001,2024-10-07_20h31.10.565,untitled,2024.1.5,None,2024-10-07 20h31.27.406187 +0530,
90,0,90,0,176.77329300018027,,,,,,,,,,,,176.73250709986314,10,0.029896199703216553,176.77329300018027,176.77329300018027,179.62685649981722,[0.4153645833333333],[-0.23177083333333334],[1],[0],[0],[2.893940399866551],['target'],,,,N3,001,2024-10-07_20h31.10.565,untitled,2024.1.5,None,2024-10-07 20h31.27.406187 +0530,
91,0,91,0,179.65245639998466,,,,,,,,,,,,179.629733200185,5,0.015534000005573034,179.65245639998466,179.65245639998466,181.90762430010363,[-0.057291666666666664],[-0.4140625],[1],[0],[0],[2.2774628000333905],['target'],,,,N3,001,2024-10-07_20h31.10.565,untitled,2024.1.5,None,2024-10-07 20h31.27.406187 +0530,
92,0,92,0,181.9340865998529,,,,,,,,,,,,181.9106096001342,5,0.01588509976863861,181.9340865998529,181.9340865998529,183.67295720009133,[0.3098958333333333],[-0.2747395833333333],[1],[0],[0],[1.7618436999619007],['target'],,,,N3,001,2024-10-07_20h31.10.565,untitled,2024.1.5,None,2024-10-07 20h31.27.406187 +0530,
93,0,93,0,183.71750700008124,,,,,,,,,,,,183.67592260008678,10,0.030051799956709146,183.71750700008124,183.71750700008124,187.2856637001969,[0.4440104166666667],[0.21875],[1],[0],[0],[3.609208300244063],['target'],,,,N3,001,2024-10-07_20h31.10.565,untitled,2024.1.5,None,2024-10-07 20h31.27.406187 +0530,
94,0,94,0,187.3295610002242,,,,,,,,,,,,187.28866910003126,10,0.029429899994283915,187.3295610002242,187.3295610002242,188.801061199978,[0.359375],[0.375],[1],[0],[0],[1.5119592999108136],['target'],,,,N3,001,2024-10-07_20h31.10.565,untitled,2024.1.5,None,2024-10-07 20h31.27.406187 +0530,
95,0,95,0,188.84495070017874,,,,,,,,,,,,188.8039794000797,10,0.03018169989809394,188.84495070017874,188.84495070017874,190.91523719998077,[-0.4192708333333333],[-0.21484375],[1],[0],[0],[2.1108118002302945],['target'],,,,N3,001,2024-10-07_20h31.10.565,untitled,2024.1.5,None,2024-10-07 20h31.27.406187 +0530,
96,0,96,0,190.95921789994463,,,,,,,,,,,,190.91812139982358,10,0.02962569985538721,190.95921789994463,190.95921789994463,193.3465021001175,[-0.09765625],[-0.4075520833333333],[1],[0],[0],[2.4279439002275467],['target'],,,,N3,001,2024-10-07_20h31.10.565,untitled,2024.1.5,None,2024-10-07 20h31.27.406187 +0530,
97,0,97,0,193.3724294998683,,,,,,,,,,,,193.34944080002606,5,0.015967499930411577,193.3724294998683,193.3724294998683,195.6112033999525,[0.4361979166666667],[-0.12630208333333334],[1],[0],[0],[2.261283100116998],['target'],,,,N3,001,2024-10-07_20h31.10.565,untitled,2024.1.5,None,2024-10-07 20h31.27.406187 +0530,
98,0,98,0,195.6377238999121,,,,,,,,,,,,195.61417309986427,5,0.01608720002695918,195.6377238999121,195.6377238999121,197.42564280005172,[0.03125],[-0.22916666666666666],[1],[0],[0],[1.8110611997544765],['target'],,,,N3,001,2024-10-07_20h31.10.565,untitled,2024.1.5,None,2024-10-07 20h31.27.406187 +0530,
99,0,99,0,197.45160009991378,,,,,,,,,,,,197.42847550008446,5,0.015569400042295456,197.45160009991378,197.45160009991378,199.75731030013412,[0.4518229166666667],[0.265625],[1],[0],[0],[2.328303599730134],['target'],,,,N3,001,2024-10-07_20h31.10.565,untitled,2024.1.5,None,2024-10-07 20h31.27.406187 +0530,
100,0,100,0,199.80137370014563,,,,,,,,,,,,199.76023689983413,10,0.02975660003721714,199.80137370014563,199.80137370014563,202.27110890019685,[-0.4166666666666667],[-0.22265625],[1],[0],[0],[2.5104200998321176],['target'],,,,N3,001,2024-10-07_20h31.10.565,untitled,2024.1.5,None,2024-10-07 20h31.27.406187 +0530,
101,0,101,0,202.2979485001415,,,,,,,,,,,,202.27425660006702,5,0.01616810029372573,202.2979485001415,202.2979485001415,203.47045189980417,[-0.37890625],[-0.13151041666666666],[1],[0],[0],[1.1956600998528302],['target'],,,,N3,001,2024-10-07_20h31.10.565,untitled,2024.1.5,None,2024-10-07 20h31.27.406187 +0530,
102,0,102,0,203.4964136998169,,,,,,,,,,,,203.47338199988008,5,0.01554850023239851,203.4964136998169,203.4964136998169,205.4181232000701,[0.06380208333333333],[-0.4192708333333333],[1],[0],[0],[1.944331499747932],['target'],,,,N3,001,2024-10-07_20h31.10.565,untitled,2024.1.5,None,2024-10-07 20h31.27.406187 +0530,
103,0,103,0,205.46286719990894,,,,,,,,,,,,205.42106920015067,10,0.03033620025962591,205.46286719990894,205.46286719990894,207.58321289997548,[0.4088541666666667],[-0.23958333333333334],[1],[0],[0],[2.161577000282705],['target'],,,,N3,001,2024-10-07_20h31.10.565,untitled,2024.1.5,None,2024-10-07 20h31.27.406187 +0530,
104,0,104,0,207.62714989995584,,,,,,,,,,,,207.58611379982904,10,0.02995810005813837,207.62714989995584,207.62714989995584,210.14704259997234,[-0.3385416666666667],[-0.234375],[1],[0],[0],[2.5604321998544037],['target'],,,,N3,001,2024-10-07_20h31.10.565,untitled,2024.1.5,None,2024-10-07 20h31.27.406187 +0530,
105,0,105,0,210.1913101999089,,,,,,,,,,,,210.1499751000665,10,0.029978299979120493,210.1913101999089,210.1913101999089,216.59122909978032,[0.18619791666666666],[0.4544270833333333],[1],[0],[0],[6.440770000219345],['target'],,,,N3,001,2024-10-07_20h31.10.565,untitled,2024.1.5,None,2024-10-07 20h31.27.406187 +0530,
106,0,106,0,216.61744630010799,,,,,,,,,,,,216.594398799818,5,0.01575689995661378,216.61744630010799,216.61744630010799,217.72277719993144,[0.024739583333333332],[0.3020833333333333],[1],[0],[0],[1.1279933997429907],['target'],,,,N3,001,2024-10-07_20h31.10.565,untitled,2024.1.5,None,2024-10-07 20h31.27.406187 +0530,
107,0,107,0,217.76572629995644,,,,,,,,,,,,217.72569099999964,10,0.028722200077027082,217.76572629995644,217.76572629995644,219.47121910005808,[-0.3763020833333333],[0.0234375],[1],[0],[0],[1.7450145999900997],['target'],,,,N3,001,2024-10-07_20h31.10.565,untitled,2024.1.5,None,2024-10-07 20h31.27.406187 +0530,
108,0,108,0,219.49826070014387,,,,,,,,,,,,219.47426880011335,5,0.016483299899846315,219.49826070014387,219.49826070014387,221.28561080014333,[-0.037760416666666664],[-0.3528645833333333],[1],[0],[0],[1.8109297002665699],['target'],,,,N3,001,2024-10-07_20h31.10.565,untitled,2024.1.5,None,2024-10-07 20h31.27.406187 +0530,
109,0,109,0,221.33091770019382,,,,,,,,,,,,221.28856670018286,10,0.03101930022239685,221.33091770019382,221.33091770019382,223.13446989981458,[0.30078125],[0.17057291666666666],[1],[0],[0],[1.8454622002318501],['target'],,,,N3,001,2024-10-07_20h31.10.565,untitled,2024.1.5,None,2024-10-07 20h31.27.406187 +0530,
110,0,110,0,223.16125850006938,,,,,,,,,,,,223.13738470012322,5,0.015931999776512384,223.16125850006938,223.16125850006938,224.69961709994823,[-0.045572916666666664],[0.10677083333333333],[1],[0],[0],[1.561688399873674],['target'],,,,N3,001,2024-10-07_20h31.10.565,untitled,2024.1.5,None,2024-10-07 20h31.27.406187 +0530,
111,0,111,0,224.7434665998444,,,,,,,,,,,,224.70257299998775,10,0.0298331999219954,224.7434665998444,224.7434665998444,225.8809277000837,[-0.4075520833333333],[0.09375],[1],[0],[0],[1.1779294000007212],['target'],,,,N3,001,2024-10-07_20h31.10.565,untitled,2024.1.5,None,2024-10-07 20h31.27.406187 +0530,
112,0,112,0,225.90787799982354,,,,,,,,,,,,225.88399269990623,5,0.016532799694687128,225.90787799982354,225.90787799982354,227.43003530008718,[0.11067708333333333],[0.26953125],[1],[0],[0],[1.5456237001344562],['target'],,,,N3,001,2024-10-07_20h31.10.565,untitled,2024.1.5,None,2024-10-07 20h31.27.406187 +0530,
113,0,113,0,227.4558684998192,,,,,,,,,,,,227.43292229995131,5,0.015647099819034338,227.4558684998192,227.4558684998192,229.29486079979688,[0.19401041666666666],[-0.17057291666666666],[1],[0],[0],[1.8614993998780847],['target'],,,,N3,001,2024-10-07_20h31.10.565,untitled,2024.1.5,None,2024-10-07 20h31.27.406187 +0530,
114,0,114,0,229.3210428999737,,,,,,,,,,,,229.29788749990985,5,0.015556399710476398,229.3210428999737,229.3210428999737,231.10927300015464,[-0.4869791666666667],[0.34765625],[1],[0],[0],[1.8108761999756098],['target'],,,,N3,001,2024-10-07_20h31.10.565,untitled,2024.1.5,None,2024-10-07 20h31.27.406187 +0530,
115,0,115,0,231.1356433001347,,,,,,,,,,,,231.11226780014113,5,0.016048099845647812,231.1356433001347,231.1356433001347,232.87445730017498,[-0.4127604166666667],[0.036458333333333336],[1],[0],[0],[1.7617919999174774],['target'],,,,N3,001,2024-10-07_20h31.10.565,untitled,2024.1.5,None,2024-10-07 20h31.27.406187 +0530,
116,0,116,0,232.9004705999978,,,,,,,,,,,,232.8774993000552,5,0.015295499935746193,232.9004705999978,232.9004705999978,235.50536319985986,[0.4427083333333333],[-0.2604166666666667],[1],[0],[0],[2.6274397000670433],['target'],,,,N3,001,2024-10-07_20h31.10.565,untitled,2024.1.5,None,2024-10-07 20h31.27.406187 +0530,
117,0,117,0,235.53134750016034,,,,,,,,,,,,235.508379700128,5,0.015864400193095207,235.53134750016034,235.53134750016034,237.2371257999912,[-0.0546875],[-0.07291666666666667],[1],[0],[0],[1.7283376003615558],['target'],,,,N3,001,2024-10-07_20h31.10.565,untitled,2024.1.5,None,2024-10-07 20h31.27.406187 +0530,
118,0,118,0,237.28104449994862,,,,,,,,,,,,237.24002810008824,10,0.02944539999589324,237.28104449994862,237.28104449994862,239.03548450022936,[-0.4700520833333333],[-0.4440104166666667],[1],[0],[0],[1.794944599736482],['target'],,,,N3,001,2024-10-07_20h31.10.565,untitled,2024.1.5,None,2024-10-07 20h31.27.406187 +0530,
119,0,119,0,239.06108980020508,,,,,,,,,,,,239.0384531999007,5,0.015234899707138538,239.06108980020508,239.06108980020508,241.18362479982898,[0.203125],[-0.3020833333333333],[1],[0],[0],[2.1447203997522593],['target'],,,,N3,001,2024-10-07_20h31.10.565,untitled,2024.1.5,None,2024-10-07 20h31.27.406187 +0530,
120,0,120,0,241.22762760007754,,,,,,,,,,,,241.18650829978287,10,0.029528499580919743,241.22762760007754,241.22762760007754,242.91511800000444,[-0.3046875],[-0.16276041666666666],[1],[0],[0],[1.7280699000693858],['target'],,,,N3,001,2024-10-07_20h31.10.565,untitled,2024.1.5,None,2024-10-07 20h31.27.406187 +0530,
121,0,121,0,242.94164500012994,,,,,,,,,,,,242.91810290003195,5,0.015731199644505978,242.94164500012994,242.94164500012994,245.86269789980724,[0.044270833333333336],[0.4739583333333333],[1],[0],[0],[2.9441595003008842],['target'],,,,N3,001,2024-10-07_20h31.10.565,untitled,2024.1.5,None,2024-10-07 20h31.27.406187 +0530,
122,0,122,0,245.8884185999632,,,,,,,,,,,,245.8655868000351,5,0.015420400071889162,245.8884185999632,245.8884185999632,247.92641270020977,[0.3333333333333333],[-0.3619791666666667],[1],[0],[0],[2.060421499889344],['target'],,,,N3,001,2024-10-07_20h31.10.565,untitled,2024.1.5,None,2024-10-07 20h31.27.406187 +0530,
123,0,123,0,247.95220369985327,,,,,,,,,,,,247.9292796999216,5,0.015522500034421682,247.95220369985327,247.95220369985327,250.09067169995978,[-0.0013020833333333333],[0.3932291666666667],[1],[0],[0],[2.160952300298959],['target'],,,,N3,001,2024-10-07_20h31.10.565,untitled,2024.1.5,None,2024-10-07 20h31.27.406187 +0530,
124,0,124,0,250.1172222001478,,,,,,,,,,,,250.09361370000988,5,0.015880499966442585,250.1172222001478,250.1172222001478,251.5736563000828,[0.2708333333333333],[0.375],[1],[0],[0],[1.479617000091821],['target'],,,,N3,001,2024-10-07_20h31.10.565,untitled,2024.1.5,None,2024-10-07 20h31.27.406187 +0530,
125,0,125,0,251.59951299987733,,,,,,,,,,,,251.5766770998016,5,0.015560700092464685,251.59951299987733,251.59951299987733,253.62148510012776,[-0.4700520833333333],[0.44921875],[1],[0],[0],[2.044182199984789],['target'],,,,N3,001,2024-10-07_20h31.10.565,untitled,2024.1.5,None,2024-10-07 20h31.27.406187 +0530,
126,0,126,0,253.64967889990658,,,,,,,,,,,,253.62659320002422,5,0.015562700107693672,253.64967889990658,253.64967889990658,255.75206140009686,[-0.014322916666666666],[-0.2643229166666667],[1],[0],[0],[2.1249231002293527],['target'],,,,N3,001,2024-10-07_20h31.10.565,untitled,2024.1.5,None,2024-10-07 20h31.27.406187 +0530,
127,0,127,0,255.7788284001872,,,,,,,,,,,,255.75537770008668,5,0.01593129988759756,255.7788284001872,255.7788284001872,257.2837189999409,[-0.22786458333333334],[0.234375],[1],[0],[0],[1.5279052997939289],['target'],,,,N3,001,2024-10-07_20h31.10.565,untitled,2024.1.5,None,2024-10-07 20h31.27.406187 +0530,
128,0,128,0,257.30951010016724,,,,,,,,,,,,257.28668749984354,5,0.015256400220096111,257.30951010016724,257.30951010016724,258.88249080022797,[0.49609375],[0.3307291666666667],[1],[0],[0],[1.595383099745959],['target'],,,,N3,001,2024-10-07_20h31.10.565,untitled,2024.1.5,None,2024-10-07 20h31.27.406187 +0530,
129,0,129,0,258.9258567998186,,,,,,,,,,,,258.88539840001613,10,0.029742599930614233,258.9258567998186,258.9258567998186,261.4139140001498,[-0.17447916666666666],[-0.4765625],[1],[0],[0],[2.528083899989724],['target'],,,,N3,001,2024-10-07_20h31.10.565,untitled,2024.1.5,None,2024-10-07 20h31.27.406187 +0530,
130,0,130,0,261.4576686001383,,,,,,,,,,,,261.41687599988654,10,0.02981359977275133,261.4576686001383,261.4576686001383,263.1782639999874,[0.19791666666666666],[-0.23046875],[1],[0],[0],[1.760943299625069],['target'],,,,N3,001,2024-10-07_20h31.10.565,untitled,2024.1.5,None,2024-10-07 20h31.27.406187 +0530,
131,0,131,0,263.2045514998026,,,,,,,,,,,,263.18113589985296,5,0.015632899943739176,263.2045514998026,263.2045514998026,264.54456190019846,[0.3216145833333333],[0.12369791666666667],[1],[0],[0],[1.3629222000017762],['target'],,,,N3,001,2024-10-07_20h31.10.565,untitled,2024.1.5,None,2024-10-07 20h31.27.406187 +0530,
132,0,132,0,264.5867225998081,,,,,,,,,,,,264.54742240021005,10,0.028833999764174223,264.5867225998081,264.5867225998081,266.04206490004435,[0.19010416666666666],[0.4192708333333333],[1],[0],[0],[1.4942393996752799],['target'],,,,N3,001,2024-10-07_20h31.10.565,untitled,2024.1.5,None,2024-10-07 20h31.27.406187 +0530,
133,0,133,0,266.08608180005103,,,,,,,,,,,,266.0450482000597,10,0.029868199955672026,266.08608180005103,266.08608180005103,267.89073950005695,[0.22916666666666666],[0.30078125],[1],[0],[0],[1.8451630002819002],['target'],,,,N3,001,2024-10-07_20h31.10.565,untitled,2024.1.5,None,2024-10-07 20h31.27.406187 +0530,
134,0,134,0,267.91666299989447,,,,,,,,,,,,267.8936314000748,5,0.015206699725240469,267.91666299989447,267.91666299989447,269.5555342999287,[0.14583333333333334],[-0.20703125],[1],[0],[0],[1.6614772002212703],['target'],,,,N3,001,2024-10-07_20h31.10.565,untitled,2024.1.5,None,2024-10-07 20h31.27.406187 +0530,
135,0,135,0,269.59992570010945,,,,,,,,,,,,269.55852579977363,10,0.03043909976258874,269.59992570010945,269.59992570010945,271.0535256997682,[0.18880208333333334],[0.2825520833333333],[1],[0],[0],[1.4945780001580715],['target'],,,,N3,001,2024-10-07_20h31.10.565,untitled,2024.1.5,None,2024-10-07 20h31.27.406187 +0530,
136,0,136,0,271.08003629976884,,,,,,,,,,,,271.0565551999025,5,0.01602960005402565,271.08003629976884,271.08003629976884,272.38567470014095,[0.48828125],[0.2864583333333333],[1],[0],[0],[1.3286898997612298],['target'],,,,N3,001,2024-10-07_20h31.10.565,untitled,2024.1.5,None,2024-10-07 20h31.27.406187 +0530,
137,0,137,0,272.4118384998292,,,,,,,,,,,,272.3885853998363,5,0.015850000083446503,272.4118384998292,272.4118384998292,273.7345457999036,[0.3333333333333333],[-0.018229166666666668],[1],[0],[0],[1.3455234998837113],['target'],,,,N3,001,2024-10-07_20h31.10.565,untitled,2024.1.5,None,2024-10-07 20h31.27.406187 +0530,
138,0,138,0,273.77784049976617,,,,,,,,,,,,273.73744789976627,10,0.029285999946296215,273.77784049976617,273.77784049976617,275.532291600015,[-0.14192708333333334],[0.2760416666666667],[1],[0],[0],[1.7944181999191642],['target'],,,,N3,001,2024-10-07_20h31.10.565,untitled,2024.1.5,None,2024-10-07 20h31.27.406187 +0530,
139,0,139,0,275.5759779000655,,,,,,,,,,,,275.53537400020286,10,0.029279999900609255,275.5759779000655,275.5759779000655,277.0980214001611,[-0.16796875],[-0.05078125],[1],[0],[0],[1.5620993999764323],['target'],,,,N3,001,2024-10-07_20h31.10.565,untitled,2024.1.5,None,2024-10-07 20h31.27.406187 +0530,
140,0,140,0,277.1420701998286,,,,,,,,,,,,277.1009472999722,10,0.029824899975210428,277.1420701998286,277.1420701998286,278.89657330000773,[-0.38671875],[0.4036458333333333],[1],[0],[0],[1.7951239999383688],['target'],,,,N3,001,2024-10-07_20h31.10.565,untitled,2024.1.5,None,2024-10-07 20h31.27.406187 +0530,
141,0,141,0,278.940604200121,,,,,,,,,,,,278.8996341000311,10,0.02990660024806857,278.940604200121,278.940604200121,280.8775972998701,[-0.41015625],[-0.26953125],[1],[0],[0],[1.9775555999949574],['target'],,,,N3,001,2024-10-07_20h31.10.565,untitled,2024.1.5,None,2024-10-07 20h31.27.406187 +0530,
142,0,142,0,280.9217245001346,,,,,,,,,,,,280.880595699884,10,0.030070899985730648,280.9217245001346,280.9217245001346,282.87545680021867,[-0.23177083333333334],[0.3984375],[1],[0],[0],[1.9944424000568688],['target'],,,,N3,001,2024-10-07_20h31.10.565,untitled,2024.1.5,None,2024-10-07 20h31.27.406187 +0530,
143,0,143,0,282.9264318998903,,,,,,,,,,,,282.87848229985684,10,0.033184700179845095,282.9264318998903,282.9264318998903,284.8400338999927,[0.24088541666666666],[-0.3580729166666667],[1],[0],[0],[1.9611252001486719],['target'],,,,N3,001,2024-10-07_20h31.10.565,untitled,2024.1.5,None,2024-10-07 20h31.27.406187 +0530,
144,0,144,0,284.8661620998755,,,,,,,,,,,,284.84302680008113,5,0.015538000036031008,284.8661620998755,284.8661620998755,286.3891671001911,[0.19270833333333334],[0.48046875],[1],[0],[0],[1.545605800114572],['target'],,,,N3,001,2024-10-07_20h31.10.565,untitled,2024.1.5,None,2024-10-07 20h31.27.406187 +0530,
145,0,145,0,286.4340677000582,,,,,,,,,,,,286.3921102001332,10,0.029932299628853798,286.4340677000582,286.4340677000582,288.15349210007116,[-0.4049479166666667],[0.3776041666666667],[1],[0],[0],[1.7609564000740647],['target'],,,,N3,001,2024-10-07_20h31.10.565,untitled,2024.1.5,None,2024-10-07 20h31.27.406187 +0530,
146,0,146,0,288.19635370001197,,,,,,,,,,,,288.1568430000916,10,0.029565200209617615,288.19635370001197,288.19635370001197,290.3019344001077,[0.016927083333333332],[-0.421875],[1],[0],[0],[2.144589100033045],['target'],,,,N3,001,2024-10-07_20h31.10.565,untitled,2024.1.5,None,2024-10-07 20h31.27.406187 +0530,
147,0,147,0,290.32700579985976,,,,,,,,,,,,290.30500139994547,5,0.015595899894833565,290.32700579985976,290.32700579985976,291.8670556000434,[-0.14192708333333334],[0.3333333333333333],[1],[0],[0],[1.5615656999871135],['target'],,,,N3,001,2024-10-07_20h31.10.565,untitled,2024.1.5,None,2024-10-07 20h31.27.406187 +0530,
148,0,148,0,291.91010079998523,,,,,,,,,,,,291.8699894999154,10,0.0297540002502501,291.91010079998523,291.91010079998523,293.1319236001,[-0.38671875],[0.43359375],[1],[0],[0],[1.2615117002278566],['target'],,,,N3,001,2024-10-07_20h31.10.565,untitled,2024.1.5,None,2024-10-07 20h31.27.406187 +0530,
149,0,149,0,293.1762020001188,,,,,,,,,,,,293.13482289994135,10,0.030046199914067984,293.1762020001188,293.1762020001188,294.9472765000537,[0.10546875],[-0.048177083333333336],[1],[0],[0],[1.8119878000579774],['target'],,,,N3,001,2024-10-07_20h31.10.565,untitled,2024.1.5,None,2024-10-07 20h31.27.406187 +0530,
150,0,150,0,294.9931394001469,,,,,,,,,,,,294.9503600001335,10,0.03053480014204979,294.9931394001469,294.9931394001469,296.2620937000029,[0.34375],[0.13932291666666666],[1],[0],[0],[1.3113379999995232],['target'],,,,N3,001,2024-10-07_20h31.10.565,untitled,2024.1.5,None,2024-10-07 20h31.27.406187 +0530,
151,0,151,0,296.3057308997959,,,,,,,,,,,,296.26503829983994,10,0.030130899976938963,296.3057308997959,296.3057308997959,297.8117339001037,[-0.07291666666666667],[0.3294270833333333],[1],[0],[0],[1.5460985000245273],['target'],,,,N3,001,2024-10-07_20h31.10.565,untitled,2024.1.5,None,2024-10-07 20h31.27.406187 +0530,
152,0,152,0,297.8567657000385,,,,,,,,,,,,297.81481130002066,10,0.03006599983200431,297.8567657000385,297.8567657000385,299.6091741002165,[0.10026041666666667],[-0.16927083333333334],[1],[0],[0],[1.7938863998278975],['target'],,,,N3,001,2024-10-07_20h31.10.565,untitled,2024.1.5,None,2024-10-07 20h31.27.406187 +0530,
153,0,153,0,299.6529136002064,,,,,,,,,,,,299.61226869979873,10,0.029444999992847443,299.6529136002064,299.6529136002064,301.39088199986145,[0.01171875],[0.3997395833333333],[1],[0],[0],[1.7781936000101268],['target'],,,,N3,001,2024-10-07_20h31.10.565,untitled,2024.1.5,None,2024-10-07 20h31.27.406187 +0530,
154,0,154,0,301.4377550999634,,,,,,,,,,,,301.39381860010326,10,0.02954859985038638,301.4377550999634,301.4377550999634,302.67388699995354,[0.15104166666666666],[0.3151041666666667],[1],[0],[0],[1.2795688998885453],['target'],,,,N3,001,2024-10-07_20h31.10.565,untitled,2024.1.5,None,2024-10-07 20h31.27.406187 +0530,
155,0,155,0,302.7175882998854,,,,,,,,,,,,302.67680669995025,10,0.02948659984394908,302.7175882998854,302.7175882998854,304.3544450001791,[-0.24609375],[0.41796875],[1],[0],[0],[1.677158100064844],['target'],,,,N3,001,2024-10-07_20h31.10.565,untitled,2024.1.5,None,2024-10-07 20h31.27.406187 +0530,
156,0,156,0,304.3991506998427,,,,,,,,,,,,304.3574529001489,10,0.029025500174611807,304.3991506998427,304.3991506998427,305.4871088000946,[-0.16536458333333334],[0.08333333333333333],[1],[0],[0],[1.129247599747032],['target'],,,,N3,001,2024-10-07_20h31.10.565,untitled,2024.1.5,None,2024-10-07 20h31.27.406187 +0530,
157,0,157,0,305.51241340022534,,,,,,,,,,,,305.490017300006,5,0.015538299921900034,305.51241340022534,305.51241340022534,306.5360298999585,[-0.22135416666666666],[0.17578125],[1],[0],[0],[1.0454912995919585],['target'],,,,N3,001,2024-10-07_20h31.10.565,untitled,2024.1.5,None,2024-10-07 20h31.27.406187 +0530,
158,0,158,0,306.5796662000939,,,,,,,,,,,,306.53898560022935,10,0.029676400125026703,306.5796662000939,306.5796662000939,308.5333206001669,[0.3880208333333333],[0.3333333333333333],[1],[0],[0],[1.9939260999672115],['target'],,,,N3,001,2024-10-07_20h31.10.565,untitled,2024.1.5,None,2024-10-07 20h31.27.406187 +0530,
159,0,159,0,308.577382999938,,,,,,,,,,,,308.53617820004,10,0.030020699836313725,308.577382999938,308.577382999938,310.36531959986314,[-0.09635416666666667],[-0.3111979166666667],[1],[0],[0],[1.8286733999848366],['target'],,,,N3,001,2024-10-07_20h31.10.565,untitled,2024.1.5,None,2024-10-07 20h31.27.406187 +0530,
160,0,160,0,310.39210980013013,,,,,,,,,,,,310.3683004998602,5,0.016025600023567677,310.39210980013013,310.39210980013013,313.1462073000148,[-0.4192708333333333],[0.06770833333333333],[1],[0],[0],[2.7774362000636756],['target'],,,,N3,001,2024-10-07_20h31.10.565,untitled,2024.1.5,None,2024-10-07 20h31.27.406187 +0530,
161,0,161,0,313.17407660000026,,,,,,,,,,,,313.1491374000907,5,0.015937400050461292,313.17407660000026,313.17407660000026,315.19350910000503,[-0.2669270833333333],[-0.2630208333333333],[1],[0],[0],[2.0439614998176694],['target'],,,,N3,001,2024-10-07_20h31.10.565,untitled,2024.1.5,None,2024-10-07 20h31.27.406187 +0530,
162,0,162,0,315.21955869998783,,,,,,,,,,,,315.1964277001098,5,0.01582589978352189,315.21955869998783,315.21955869998783,316.6760582998395,[-0.21875],[-0.30859375],[1],[0],[0],[1.4792053001001477],['target'],,,,N3,001,2024-10-07_20h31.10.565,untitled,2024.1.5,None,2024-10-07 20h31.27.406187 +0530,
163,0,163,0,316.7217779997736,,,,,,,,,,,,316.67897319979966,10,0.029171799775213003,316.7217779997736,316.7217779997736,319.3403162001632,[0.4192708333333333],[0.3932291666666667],[1],[0],[0],[2.6608996000140905],['target'],,,,N3,001,2024-10-07_20h31.10.565,untitled,2024.1.5,None,2024-10-07 20h31.27.406187 +0530,
164,0,164,0,319.3669985998422,,,,,,,,,,,,319.3432200998068,5,0.01575260004028678,319.3669985998422,319.3669985998422,321.5212615998462,[-0.4114583333333333],[0.10677083333333333],[1],[0],[0],[2.1775851999409497],['target'],,,,N3,001,2024-10-07_20h31.10.565,untitled,2024.1.5,None,2024-10-07 20h31.27.406187 +0530,
165,0,165,0,321.5483113001101,,,,,,,,,,,,321.52429739991203,5,0.016079400200396776,321.5483113001101,321.5483113001101,323.28639000002295,[-0.06640625],[0.2864583333333333],[1],[0],[0],[1.7615105998702347],['target'],,,,N3,001,2024-10-07_20h31.10.565,untitled,2024.1.5,None,2024-10-07 20h31.27.406187 +0530,
166,0,166,0,323.31426439993083,,,,,,,,,,,,323.2894763997756,5,0.016021499875932932,323.31426439993083,323.31426439993083,325.5668012998067,[0.4388020833333333],[0.234375],[1],[0],[0],[2.276900399941951],['target'],,,,N3,001,2024-10-07_20h31.10.565,untitled,2024.1.5,None,2024-10-07 20h31.27.406187 +0530,
167,0,167,0,325.592089000158,,,,,,,,,,,,325.5696836002171,5,0.015071299858391285,325.592089000158,325.592089000158,327.81520509999245,[-0.4140625],[0.3541666666666667],[1],[0],[0],[2.2450919998809695],['target'],,,,N3,001,2024-10-07_20h31.10.565,untitled,2024.1.5,None,2024-10-07 20h31.27.406187 +0530,
168,0,168,0,327.84289170010015,,,,,,,,,,,,327.8182247001678,5,0.017029799986630678,327.84289170010015,327.84289170010015,329.1470256000757,[-0.3020833333333333],[0.3138020833333333],[1],[0],[0],[1.3283465998247266],['target'],,,,N3,001,2024-10-07_20h31.10.565,untitled,2024.1.5,None,2024-10-07 20h31.27.406187 +0530,
169,0,169,0,329.1741268998012,,,,,,,,,,,,329.14999190019444,5,0.015999299939721823,329.1741268998012,329.1741268998012,332.61038309987634,[0.3411458333333333],[0.4791666666666667],[1],[0],[0],[3.4596760999411345],['target'],,,,N3,001,2024-10-07_20h31.10.565,untitled,2024.1.5,None,2024-10-07 20h31.27.406187 +0530,
170,0,170,0,332.64700820017606,,,,,,,,,,,,332.6159143000841,5,0.021731100045144558,332.64700820017606,332.64700820017606,334.5248174001463,[-0.20182291666666666],[0.3372395833333333],[1],[0],[0],[1.9084085999056697],['target'],,,,N3,001,2024-10-07_20h31.10.565,untitled,2024.1.5,None,2024-10-07 20h31.27.406187 +0530,
171,0,171,0,334.55087479995564,,,,,,,,,,,,334.5277444999665,5,0.015788400080055,334.55087479995564,334.55087479995564,337.2724497001618,[0.4166666666666667],[-0.16145833333333334],[1],[0],[0],[2.7442533997818828],['target'],,,,N3,001,2024-10-07_20h31.10.565,untitled,2024.1.5,None,2024-10-07 20h31.27.406187 +0530,
172,0,172,0,337.30053889984265,,,,,,,,,,,,337.2753490000032,5,0.016298600006848574,337.30053889984265,337.30053889984265,341.7348397001624,[-0.4752604166666667],[0.13151041666666666],[1],[0],[0],[4.459034400060773],['target'],,,,N3,001,2024-10-07_20h31.10.565,untitled,2024.1.5,None,2024-10-07 20h31.27.406187 +0530,
173,0,173,0,341.77851210022345,,,,,,,,,,,,341.7378257000819,10,0.029660099651664495,341.77851210022345,341.77851210022345,346.1796792000532,[0.1328125],[0.34765625],[1],[0],[0],[4.441447700373828],['target'],,,,N3,001,2024-10-07_20h31.10.565,untitled,2024.1.5,None,2024-10-07 20h31.27.406187 +0530,
174,0,174,0,346.22408870002255,,,,,,,,,,,,346.1826475998387,10,0.030112700071185827,346.22408870002255,346.22408870002255,350.7597678001039,[-0.2552083333333333],[0.44140625],[1],[0],[0],[4.57667910028249],['target'],,,,N3,001,2024-10-07_20h31.10.565,untitled,2024.1.5,None,2024-10-07 20h31.27.406187 +0530,
175,0,175,0,350.80607050005347,,,,,,,,,,,,350.7626867000945,10,0.030040600337088108,350.80607050005347,350.80607050005347,357.1198255000636,[0.3671875],[-0.2955729166666667],[1],[0],[0],[6.356704500038177],['target'],,,,N3,001,2024-10-07_20h31.10.565,untitled,2024.1.5,None,2024-10-07 20h31.27.406187 +0530,
176,0,176,0,357.14573179977015,,,,,,,,,,,,357.1226896001026,5,0.015604599844664335,357.14573179977015,357.14573179977015,358.4685423001647,[0.3359375],[0.0026041666666666665],[1],[0],[0],[1.3452932997606695],['target'],,,,N3,001,2024-10-07_20h31.10.565,untitled,2024.1.5,None,2024-10-07 20h31.27.406187 +0530,
177,0,177,0,358.49493490019813,,,,,,,,,,,,358.4714127997868,5,0.016009300015866756,358.49493490019813,358.49493490019813,359.93363810004666,[0.3515625],[0.3763020833333333],[1],[0],[0],[1.4617456002160907],['target'],,,,N3,001,2024-10-07_20h31.10.565,untitled,2024.1.5,None,2024-10-07 20h31.27.406187 +0530,
178,0,178,0,359.96086960006505,,,,,,,,,,,,359.93655580002815,5,0.015606699977070093,359.96086960006505,359.96086960006505,361.36532980017364,[0.016927083333333332],[0.47265625],[1],[0],[0],[1.42833560006693],['target'],,,,N3,001,2024-10-07_20h31.10.565,untitled,2024.1.5,None,2024-10-07 20h31.27.406187 +0530,
179,0,179,0,361.3914939002134,,,,,,,,,,,,361.36836980003864,5,0.015867299865931273,361.3914939002134,361.3914939002134,363.12970920000225,[-0.15364583333333334],[-0.09375],[1],[0],[0],[1.760897799860686],['target'],,,,N3,001,2024-10-07_20h31.10.565,untitled,2024.1.5,None,2024-10-07 20h31.27.406187 +0530,
180,0,180,0,363.173483800143,,,,,,,,,,,,363.13258979981765,10,0.030114199966192245,363.173483800143,363.173483800143,365.1614580000751,[0.36328125],[0.21744791666666666],[1],[0],[0],[2.0284751998260617],['target'],,,,N3,001,2024-10-07_20h31.10.565,untitled,2024.1.5,None,2024-10-07 20h31.27.406187 +0530,
181,0,181,0,365.2062555998564,,,,,,,,,,,,365.1644234000705,10,0.029583599884063005,365.2062555998564,365.2062555998564,367.0286845997907,[-0.046875],[-0.4036458333333333],[1],[0],[0],[1.8637298000976443],['target'],,,,N3,001,2024-10-07_20h31.10.565,untitled,2024.1.5,None,2024-10-07 20h31.27.406187 +0530,
182,0,182,0,367.074958300218,,,,,,,,,,,,367.03266579983756,10,0.030664900317788124,367.074958300218,367.074958300218,368.9075989997946,[-0.13411458333333334],[0.2838541666666667],[1],[0],[0],[1.8743976997211576],['target'],,,,N3,001,2024-10-07_20h31.10.565,untitled,2024.1.5,None,2024-10-07 20h31.27.406187 +0530,
183,0,183,0,368.95355249987915,,,,,,,,,,,,368.9105161000043,10,0.028656700160354376,368.95355249987915,368.95355249987915,371.4056874997914,[0.4622395833333333],[-0.3528645833333333],[1],[0],[0],[2.49466220010072],['target'],,,,N3,001,2024-10-07_20h31.10.565,untitled,2024.1.5,None,2024-10-07 20h31.27.406187 +0530,
184,0,184,0,371.4335953001864,,,,,,,,,,,,371.40959519986063,5,0.0160005996003747,371.4335953001864,371.4335953001864,372.85390720004216,[0.44140625],[-0.07161458333333333],[1],[0],[0],[1.443859999999404],['target'],,,,N3,001,2024-10-07_20h31.10.565,untitled,2024.1.5,None,2024-10-07 20h31.27.406187 +0530,
185,0,185,0,372.8811257001944,,,,,,,,,,,,372.856781499926,5,0.01645899983122945,372.8811257001944,372.8811257001944,374.4024744001217,[0.3971354166666667],[-0.4401041666666667],[1],[0],[0],[1.5452852002345026],['target'],,,,N3,001,2024-10-07_20h31.10.565,untitled,2024.1.5,None,2024-10-07 20h31.27.406187 +0530,
186,0,186,0,374.4491938999854,,,,,,,,,,,,374.4054805999622,10,0.031182000413537025,374.4491938999854,374.4491938999854,375.8174402001314,[0.20833333333333334],[0.018229166666666668],[1],[0],[0],[1.4115235996432602],['target'],,,,N3,001,2024-10-07_20h31.10.565,untitled,2024.1.5,None,2024-10-07 20h31.27.406187 +0530,
187,0,187,0,375.84623260004446,,,,,,,,,,,,375.82050780020654,5,0.01643029972910881,375.84623260004446,375.84623260004446,377.18342099990696,[-0.13932291666666666],[0.34375],[1],[0],[0],[1.3624179000034928],['target'],,,,N3,001,2024-10-07_20h31.10.565,untitled,2024.1.5,None,2024-10-07 20h31.27.406187 +0530,
188,0,188,0,377.2320981998928,,,,,,,,,,,,377.1864466997795,10,0.03275769995525479,377.2320981998928,377.2320981998928,379.380450299941,[0.3606770833333333],[-0.3151041666666667],[1],[0],[0],[2.1934611997567117],['target'],,,,N3,001,2024-10-07_20h31.10.565,untitled,2024.1.5,None,2024-10-07 20h31.27.406187 +0530,
189,0,189,0,379.42603409988806,,,,,,,,,,,,379.3833558000624,10,0.02946439990773797,379.42603409988806,379.42603409988806,381.9947640001774,[0.5052083333333334],[-0.078125],[1],[0],[0],[2.6109800999984145],['target'],,,,N3,001,2024-10-07_20h31.10.565,untitled,2024.1.5,None,2024-10-07 20h31.27.406187 +0530,
190,0,190,0,382.03922150004655,,,,,,,,,,,,381.9977711997926,10,0.030178800225257874,382.03922150004655,382.03922150004655,384.69257629988715,[0.3059895833333333],[-0.3932291666666667],[1],[0],[0],[2.694323499687016],['target'],,,,N3,001,2024-10-07_20h31.10.565,untitled,2024.1.5,None,2024-10-07 20h31.27.406187 +0530,
191,0,191,0,384.7191598000936,,,,,,,,,,,,384.69552840013057,5,0.015771500300616026,384.7191598000936,384.7191598000936,388.57212059991434,[0.21354166666666666],[0.3385416666666667],[1],[0],[0],[3.876157300081104],['target'],,,,N3,001,2024-10-07_20h31.10.565,untitled,2024.1.5,None,2024-10-07 20h31.27.406187 +0530,
192,0,192,0,388.59769860003144,,,,,,,,,,,,388.57496970007196,5,0.015614899806678295,388.59769860003144,388.59769860003144,395.6477843001485,[-0.34765625],[0.3020833333333333],[1],[0],[0],[7.07237059995532],['target'],,,,N3,001,2024-10-07_20h31.10.565,untitled,2024.1.5,None,2024-10-07 20h31.27.406187 +0530,
193,0,193,0,395.69350819988176,,,,,,,,,,,,395.65071769990027,10,0.03050380013883114,395.69350819988176,395.69350819988176,397.2135214000009,[-0.4908854166666667],[0.3424479166666667],[1],[0],[0],[1.562327299732715],['target'],,,,N3,001,2024-10-07_20h31.10.565,untitled,2024.1.5,None,2024-10-07 20h31.27.406187 +0530,
194,0,194,0,397.24009560002014,,,,,,,,,,,,397.21636880002916,5,0.016112900339066982,397.24009560002014,397.24009560002014,398.8952047000639,[-0.17057291666666666],[0.17057291666666666],[1],[0],[0],[1.6784339998848736],['target'],,,,N3,001,2024-10-07_20h31.10.565,untitled,2024.1.5,None,2024-10-07 20h31.27.406187 +0530,
195,0,195,0,398.9414286999963,,,,,,,,,,,,398.8982857000083,10,0.03033940028399229,398.9414286999963,398.9414286999963,400.26019660010934,[-0.045572916666666664],[0.3333333333333333],[1],[0],[0],[1.3614794998429716],['target'],,,,N3,001,2024-10-07_20h31.10.565,untitled,2024.1.5,None,2024-10-07 20h31.27.406187 +0530,
196,0,196,0,400.2871097000316,,,,,,,,,,,,400.2632071999833,5,0.016419799998402596,400.2871097000316,400.2871097000316,402.3421046999283,[0.3763020833333333],[-0.4075520833333333],[1],[0],[0],[2.0783828999847174],['target'],,,,N3,001,2024-10-07_20h31.10.565,untitled,2024.1.5,None,2024-10-07 20h31.27.406187 +0530,
197,0,197,0,402.3857137998566,,,,,,,,,,,,402.34501449996606,10,0.02942309994250536,402.3857137998566,402.3857137998566,404.14020649995655,[-0.265625],[-0.13411458333333334],[1],[0],[0],[1.7947856998071074],['target'],,,,N3,001,2024-10-07_20h31.10.565,untitled,2024.1.5,None,2024-10-07 20h31.27.406187 +0530,
198,0,198,0,404.16660539992154,,,,,,,,,,,,404.1431301999837,5,0.015743699856102467,404.16660539992154,404.16660539992154,405.67152180010453,[-0.2747395833333333],[-0.055989583333333336],[1],[0],[0],[1.5279561998322606],['target'],,,,N3,001,2024-10-07_20h31.10.565,untitled,2024.1.5,None,2024-10-07 20h31.27.406187 +0530,
199,0,199,0,405.70003149984404,,,,,,,,,,,,405.6744670998305,5,0.01688660029321909,405.70003149984404,405.70003149984404,407.43675599992275,[-0.4609375],[-0.16015625],[1],[0],[0],[1.7618681001476943],['target'],,,,N3,001,2024-10-07_20h31.10.565,untitled,2024.1.5,None,2024-10-07 20h31.27.406187 +0530,
,,,,,,,,,,,,,,,,,,,,,,,,,,,,,407.43917299993336,407.4519059997983,411.4490094999783,N3,001,2024-10-07_20h31.10.565,untitled,2024.1.5,None,2024-10-07 20h31.27.406187 +0530,
