trials.thisRepN,trials.thisTrialN,trials.thisN,trials.thisIndex,thisRow.t,notes,Hello.started,text_2.started,text_2.stopped,Hello.stopped,guidelines.started,guideline.started,key_resp.started,guidelines.stopped,key_resp.keys,key_resp.rt,key_resp.duration,trial.started,num_distr,mouse.started,polygon.started,target.started,trial.stopped,mouse.x,mouse.y,mouse.leftButton,mouse.midButton,mouse.rightButton,mouse.time,mouse.clicked_name,Thank_you.started,text_3.started,Thank_you.stopped,participant,session,date,expName,psychopyVersion,frameRate,expStart,
,,,,,,0.002386900130659342,0.011695499997586012,0.5128210000693798,0.49778470024466515,,,,,,,,,,,,,,,,,,,,,,,,T4,001,2024-10-08_13h09.40.213,untitled,2024.1.5,None,2024-10-08 13h09.56.057675 +0530,
,,,,,,,,,,0.49785140017047524,0.5128210000693798,0.5128210000693798,6.425703700166196,space,5.8951790002174675,None,,,,,,,,,,,,,,,,,T4,001,2024-10-08_13h09.40.213,untitled,2024.1.5,None,2024-10-08 13h09.56.057675 +0530,
0,0,0,0,6.515331200323999,,,,,,,,,,,,,6.467674999963492,5,0.08068479970097542,6.515331200323999,6.515331200323999,8.021138099953532,[-0.2877604166666667],[0.2799479166666667],[1],[0],[0],[1.5524639999493957],['target'],,,,T4,001,2024-10-08_13h09.40.213,untitled,2024.1.5,None,2024-10-08 13h09.56.057675 +0530,
1,0,1,0,8.079797200392932,,,,,,,,,,,,,8.034701500087976,5,0.03814460011199117,8.079797200392932,8.079797200392932,9.45428579999134,[0.10026041666666667],[0.20572916666666666],[1],[0],[0],[1.4188157003372908],['target'],,,,T4,001,2024-10-08_13h09.40.213,untitled,2024.1.5,None,2024-10-08 13h09.56.057675 +0530,
2,0,2,0,9.502885800320655,,,,,,,,,,,,,9.458997800014913,10,0.03385340003296733,9.502885800320655,9.502885800320655,11.318935600109398,[-0.4544270833333333],[-0.16276041666666666],[1],[0],[0],[1.8594261002726853],['target'],,,,T4,001,2024-10-08_13h09.40.213,untitled,2024.1.5,None,2024-10-08 13h09.56.057675 +0530,
3,0,3,0,11.3480858001858,,,,,,,,,,,,,11.323114500381052,5,0.018524799961596727,11.3480858001858,11.3480858001858,13.01789480028674,[0.3424479166666667],[-0.3684895833333333],[1],[0],[0],[1.694293100386858],['target'],,,,T4,001,2024-10-08_13h09.40.213,untitled,2024.1.5,None,2024-10-08 13h09.56.057675 +0530,
4,0,4,0,13.04721050010994,,,,,,,,,,,,,13.021090200170875,5,0.01907389983534813,13.04721050010994,13.04721050010994,14.582939800340682,[0.0026041666666666665],[-0.3736979166666667],[1],[0],[0],[1.5612953999079764],['target'],,,,T4,001,2024-10-08_13h09.40.213,untitled,2024.1.5,None,2024-10-08 13h09.56.057675 +0530,
5,0,5,0,14.61398410005495,,,,,,,,,,,,,14.587012700270861,5,0.018708800431340933,14.61398410005495,14.61398410005495,15.783145100343972,[-0.23567708333333334],[0.2721354166666667],[1],[0],[0],[1.1954704001545906],['target'],,,,T4,001,2024-10-08_13h09.40.213,untitled,2024.1.5,None,2024-10-08 13h09.56.057675 +0530,
6,0,6,0,15.81677810009569,,,,,,,,,,,,,15.788486700039357,5,0.020474900025874376,15.81677810009569,15.81677810009569,17.430735799949616,[-0.1875],[-0.38671875],[1],[0],[0],[1.6417737998999655],['target'],,,,T4,001,2024-10-08_13h09.40.213,untitled,2024.1.5,None,2024-10-08 13h09.56.057675 +0530,
7,0,7,0,17.481151800137013,,,,,,,,,,,,,17.43464540038258,10,0.034524399787187576,17.481151800137013,17.481151800137013,20.0765538001433,[-0.033854166666666664],[0.0234375],[1],[0],[0],[2.6414709999226034],['target'],,,,T4,001,2024-10-08_13h09.40.213,untitled,2024.1.5,None,2024-10-08 13h09.56.057675 +0530,
8,0,8,0,20.14181930013001,,,,,,,,,,,,,20.08029850013554,10,0.048652200028300285,20.14181930013001,20.14181930013001,21.642382900230587,[-0.3424479166666667],[-0.14453125],[1],[0],[0],[1.5616427999921143],['target'],,,,T4,001,2024-10-08_13h09.40.213,untitled,2024.1.5,None,2024-10-08 13h09.56.057675 +0530,
9,0,9,0,21.72042140038684,,,,,,,,,,,,,21.646298200357705,10,0.06326189963147044,21.72042140038684,21.72042140038684,23.22426180029288,[0.2955729166666667],[0.30859375],[1],[0],[0],[1.5775081999599934],['target'],,,,T4,001,2024-10-08_13h09.40.213,untitled,2024.1.5,None,2024-10-08 13h09.56.057675 +0530,
10,0,10,0,23.253102600108832,,,,,,,,,,,,,23.22737990040332,5,0.018648100085556507,23.253102600108832,23.253102600108832,25.091867400333285,[0.38671875],[-0.13802083333333334],[1],[0],[0],[1.8637423003092408],['target'],,,,T4,001,2024-10-08_13h09.40.213,untitled,2024.1.5,None,2024-10-08 13h09.56.057675 +0530,
11,0,11,0,25.139042800292373,,,,,,,,,,,,,25.097931600175798,5,0.028140299953520298,25.139042800292373,25.139042800292373,26.67099350038916,[0.3190104166666667],[0.040364583333333336],[1],[0],[0],[1.5723887998610735],['target'],,,,T4,001,2024-10-08_13h09.40.213,untitled,2024.1.5,None,2024-10-08 13h09.56.057675 +0530,
12,0,12,0,26.703483500052243,,,,,,,,,,,,,26.67533540027216,5,0.01846900023519993,26.703483500052243,26.703483500052243,27.919557900168,[0.024739583333333332],[0.22135416666666666],[1],[0],[0],[1.2437161998823285],['target'],,,,T4,001,2024-10-08_13h09.40.213,untitled,2024.1.5,None,2024-10-08 13h09.56.057675 +0530,
13,0,13,0,27.96788390027359,,,,,,,,,,,,,27.92295220028609,10,0.03311799978837371,27.96788390027359,27.96788390027359,29.870326100382954,[0.22395833333333334],[-0.23567708333333334],[1],[0],[0],[1.9467198997735977],['target'],,,,T4,001,2024-10-08_13h09.40.213,untitled,2024.1.5,None,2024-10-08 13h09.56.057675 +0530,
14,0,14,0,29.940732900053263,,,,,,,,,,,,,29.87658550031483,10,0.052658400032669306,29.940732900053263,29.940732900053263,31.89964110031724,[0.3541666666666667],[-0.13151041666666666],[1],[0],[0],[2.0225649001076818],['target'],,,,T4,001,2024-10-08_13h09.40.213,untitled,2024.1.5,None,2024-10-08 13h09.56.057675 +0530,
15,0,15,0,31.950658400077373,,,,,,,,,,,,,31.90282199997455,10,0.03453759988769889,31.950658400077373,31.950658400077373,33.49831070005894,[-0.12890625],[-0.16666666666666666],[1],[0],[0],[1.5946908998303115],['target'],,,,T4,001,2024-10-08_13h09.40.213,untitled,2024.1.5,None,2024-10-08 13h09.56.057675 +0530,
16,0,16,0,33.55529050016776,,,,,,,,,,,,,33.50500740017742,10,0.03918710025027394,33.55529050016776,33.55529050016776,35.16298920009285,[0.3046875],[0.14973958333333334],[1],[0],[0],[1.6574485003948212],['target'],,,,T4,001,2024-10-08_13h09.40.213,untitled,2024.1.5,None,2024-10-08 13h09.56.057675 +0530,
17,0,17,0,35.19141900027171,,,,,,,,,,,,,35.166266000363976,5,0.018170800060033798,35.19141900027171,35.19141900027171,36.92741160001606,[-0.17317708333333334],[-0.37890625],[1],[0],[0],[1.76071219984442],['target'],,,,T4,001,2024-10-08_13h09.40.213,untitled,2024.1.5,None,2024-10-08 13h09.56.057675 +0530,
18,0,18,0,36.9767611999996,,,,,,,,,,,,,36.93081249995157,10,0.03360410034656525,36.9767611999996,36.9767611999996,38.67529100039974,[-0.47265625],[-0.4309895833333333],[1],[0],[0],[1.7440306995995343],['target'],,,,T4,001,2024-10-08_13h09.40.213,untitled,2024.1.5,None,2024-10-08 13h09.56.057675 +0530,
19,0,19,0,38.72625070018694,,,,,,,,,,,,,38.67911479994655,10,0.03457290027290583,38.72625070018694,38.72625070018694,40.52412210032344,[-0.052083333333333336],[-0.2981770833333333],[1],[0],[0],[1.8445881996303797],['target'],,,,T4,001,2024-10-08_13h09.40.213,untitled,2024.1.5,None,2024-10-08 13h09.56.057675 +0530,
20,0,20,0,40.55301890010014,,,,,,,,,,,,,40.52760010026395,5,0.01784030022099614,40.55301890010014,40.55301890010014,42.755432300269604,[-0.08723958333333333],[-0.24869791666666666],[1],[0],[0],[2.227321400307119],['target'],,,,T4,001,2024-10-08_13h09.40.213,untitled,2024.1.5,None,2024-10-08 13h09.56.057675 +0530,
21,0,21,0,42.78490650001913,,,,,,,,,,,,,42.75930989999324,5,0.018033099826425314,42.78490650001913,42.78490650001913,44.40514610009268,[0.34375],[-0.3424479166666667],[1],[0],[0],[1.6452756999060512],['target'],,,,T4,001,2024-10-08_13h09.40.213,untitled,2024.1.5,None,2024-10-08 13h09.56.057675 +0530,
22,0,22,0,44.479501800145954,,,,,,,,,,,,,44.40977170038968,10,0.04569240007549524,44.479501800145954,44.479501800145954,46.97156220022589,[0.20963541666666666],[-0.4388020833333333],[1],[0],[0],[2.5607202001847327],['target'],,,,T4,001,2024-10-08_13h09.40.213,untitled,2024.1.5,None,2024-10-08 13h09.56.057675 +0530,
23,0,23,0,47.03572450019419,,,,,,,,,,,,,46.97759809996933,10,0.040571399964392185,47.03572450019419,47.03572450019419,49.54796610027552,[0.4244791666666667],[-0.2604166666666667],[1],[0],[0],[2.56985990004614],['target'],,,,T4,001,2024-10-08_13h09.40.213,untitled,2024.1.5,None,2024-10-08 13h09.56.057675 +0530,
24,0,24,0,49.59407970029861,,,,,,,,,,,,,49.55119300028309,10,0.03251100005581975,49.59407970029861,49.59407970029861,51.67961160000414,[-0.3333333333333333],[-0.3723958333333333],[1],[0],[0],[2.1279282001778483],['target'],,,,T4,001,2024-10-08_13h09.40.213,untitled,2024.1.5,None,2024-10-08 13h09.56.057675 +0530,
25,0,25,0,51.72973750019446,,,,,,,,,,,,,51.68271280033514,5,0.02996580023318529,51.72973750019446,51.72973750019446,54.29422530019656,[0.3424479166666667],[-0.4622395833333333],[1],[0],[0],[2.611076599918306],['target'],,,,T4,001,2024-10-08_13h09.40.213,untitled,2024.1.5,None,2024-10-08 13h09.56.057675 +0530,
26,0,26,0,54.34311080025509,,,,,,,,,,,,,54.29742870014161,10,0.03336870018392801,54.34311080025509,54.34311080025509,57.02423600014299,[0.24348958333333334],[0.20833333333333334],[1],[0],[0],[2.7263629999943078],['target'],,,,T4,001,2024-10-08_13h09.40.213,untitled,2024.1.5,None,2024-10-08 13h09.56.057675 +0530,
27,0,27,0,57.07549410033971,,,,,,,,,,,,,57.02929710038006,10,0.0341389998793602,57.07549410033971,57.07549410033971,60.03728449996561,[-0.4309895833333333],[-0.3307291666666667],[1],[0],[0],[3.0075405999086797],['target'],,,,T4,001,2024-10-08_13h09.40.213,untitled,2024.1.5,None,2024-10-08 13h09.56.057675 +0530,
28,0,28,0,60.09372210036963,,,,,,,,,,,,,60.040865200106055,10,0.03386799991130829,60.09372210036963,60.09372210036963,61.76994500029832,[0.3958333333333333],[0.34765625],[1],[0],[0],[1.7284495001658797],['target'],,,,T4,001,2024-10-08_13h09.40.213,untitled,2024.1.5,None,2024-10-08 13h09.56.057675 +0530,
29,0,29,0,61.831894000060856,,,,,,,,,,,,,61.77497539995238,10,0.04553089989349246,61.831894000060856,61.831894000060856,64.10140829999,[-0.5],[-0.4635416666666667],[1],[0],[0],[2.3259846000000834],['target'],,,,T4,001,2024-10-08_13h09.40.213,untitled,2024.1.5,None,2024-10-08 13h09.56.057675 +0530,
30,0,30,0,64.12765150004998,,,,,,,,,,,,,64.10431480035186,5,0.01585320010781288,64.12765150004998,64.12765150004998,66.64790530037135,[0.17057291666666666],[0.19661458333333334],[1],[0],[0],[2.5430562999099493],['target'],,,,T4,001,2024-10-08_13h09.40.213,untitled,2024.1.5,None,2024-10-08 13h09.56.057675 +0530,
31,0,31,0,66.69698640005663,,,,,,,,,,,,,66.65164540009573,10,0.03402960021048784,66.69698640005663,66.69698640005663,68.62925310013816,[0.24739583333333334],[0.4322916666666667],[1],[0],[0],[1.9771162001416087],['target'],,,,T4,001,2024-10-08_13h09.40.213,untitled,2024.1.5,None,2024-10-08 13h09.56.057675 +0530,
32,0,32,0,68.6821475001052,,,,,,,,,,,,,68.63251020014286,10,0.033442100044339895,68.6821475001052,68.6821475001052,70.94854620005935,[0.14973958333333334],[-0.4140625],[1],[0],[0],[2.315341900102794],['target'],,,,T4,001,2024-10-08_13h09.40.213,untitled,2024.1.5,None,2024-10-08 13h09.56.057675 +0530,
33,0,33,0,71.01869810000062,,,,,,,,,,,,,70.95523770013824,10,0.04866650002077222,71.01869810000062,71.01869810000062,73.60813130019233,[-0.4049479166666667],[-0.39453125],[1],[0],[0],[2.652283600065857],['target'],,,,T4,001,2024-10-08_13h09.40.213,untitled,2024.1.5,None,2024-10-08 13h09.56.057675 +0530,
34,0,34,0,73.64278520038351,,,,,,,,,,,,,73.61251919995993,5,0.019087899941951036,73.64278520038351,73.64278520038351,75.70620879996568,[0.19401041666666666],[-0.4674479166666667],[1],[0],[0],[2.0931129003874958],['target'],,,,T4,001,2024-10-08_13h09.40.213,untitled,2024.1.5,None,2024-10-08 13h09.56.057675 +0530,
35,0,35,0,75.74153030011803,,,,,,,,,,,,,75.71079260017723,5,0.018956199754029512,75.74153030011803,75.74153030011803,77.6885045003146,[0.4973958333333333],[-0.3619791666666667],[1],[0],[0],[1.9770055999979377],['target'],,,,T4,001,2024-10-08_13h09.40.213,untitled,2024.1.5,None,2024-10-08 13h09.56.057675 +0530,
36,0,36,0,77.74049620004371,,,,,,,,,,,,,77.69334350014105,10,0.035705100279301405,77.74049620004371,77.74049620004371,79.3863608003594,[-0.18359375],[-0.1796875],[1],[0],[0],[1.6925667999312282],['target'],,,,T4,001,2024-10-08_13h09.40.213,untitled,2024.1.5,None,2024-10-08 13h09.56.057675 +0530,
37,0,37,0,79.43695300025865,,,,,,,,,,,,,79.38953840034083,10,0.03406360000371933,79.43695300025865,79.43695300025865,80.93370140017942,[-0.10286458333333333],[-0.3177083333333333],[1],[0],[0],[1.5436748997308314],['target'],,,,T4,001,2024-10-08_13h09.40.213,untitled,2024.1.5,None,2024-10-08 13h09.56.057675 +0530,
38,0,38,0,80.96311670029536,,,,,,,,,,,,,80.93682750035077,5,0.01724859979003668,80.96311670029536,80.96311670029536,82.09934130031615,[-0.13020833333333334],[-0.28125],[1],[0],[0],[1.162046399898827],['target'],,,,T4,001,2024-10-08_13h09.40.213,untitled,2024.1.5,None,2024-10-08 13h09.56.057675 +0530,
39,0,39,0,82.12913740007207,,,,,,,,,,,,,82.10304550034925,5,0.01816380023956299,82.12913740007207,82.12913740007207,83.7815738003701,[0.3346354166666667],[0.20442708333333334],[1],[0],[0],[1.6780651998706162],['target'],,,,T4,001,2024-10-08_13h09.40.213,untitled,2024.1.5,None,2024-10-08 13h09.56.057675 +0530,
40,0,40,0,83.83365850010887,,,,,,,,,,,,,83.78487300034612,10,0.03286630008369684,83.83365850010887,83.83365850010887,86.12841560039669,[-0.10807291666666667],[0.4401041666666667],[1],[0],[0],[2.343052600044757],['target'],,,,T4,001,2024-10-08_13h09.40.213,untitled,2024.1.5,None,2024-10-08 13h09.56.057675 +0530,
41,0,41,0,86.18559919996187,,,,,,,,,,,,,86.13156610028818,10,0.04072150029242039,86.18559919996187,86.18559919996187,88.31049660034478,[-0.23828125],[-0.4583333333333333],[1],[0],[0],[2.178449099883437],['target'],,,,T4,001,2024-10-08_13h09.40.213,untitled,2024.1.5,None,2024-10-08 13h09.56.057675 +0530,
42,0,42,0,88.36105680000037,,,,,,,,,,,,,88.31440220028162,10,0.03336840029805899,88.36105680000037,88.36105680000037,89.77797470008954,[0.06901041666666667],[-0.38671875],[1],[0],[0],[1.4627324999310076],['target'],,,,T4,001,2024-10-08_13h09.40.213,untitled,2024.1.5,None,2024-10-08 13h09.56.057675 +0530,
43,0,43,0,89.81212820019573,,,,,,,,,,,,,89.78391670016572,5,0.021214600186794996,89.81212820019573,89.81212820019573,92.2399993003346,[0.4388020833333333],[0.43359375],[1],[0],[0],[2.455645800102502],['target'],,,,T4,001,2024-10-08_13h09.40.213,untitled,2024.1.5,None,2024-10-08 13h09.56.057675 +0530,
44,0,44,0,92.28958109999076,,,,,,,,,,,,,92.24307720037177,10,0.03418419975787401,92.28958109999076,92.28958109999076,93.73722330015153,[-0.2864583333333333],[0.2721354166666667],[1],[0],[0],[1.4936859998852015],['target'],,,,T4,001,2024-10-08_13h09.40.213,untitled,2024.1.5,None,2024-10-08 13h09.56.057675 +0530,
45,0,45,0,93.78690310008824,,,,,,,,,,,,,93.74040690017864,10,0.03275169990956783,93.78690310008824,93.78690310008824,95.23738940013573,[-0.28125],[0.08723958333333333],[1],[0],[0],[1.4964672001078725],['target'],,,,T4,001,2024-10-08_13h09.40.213,untitled,2024.1.5,None,2024-10-08 13h09.56.057675 +0530,
46,0,46,0,95.29202450020239,,,,,,,,,,,,,95.2415690002963,10,0.039072100073099136,95.29202450020239,95.29202450020239,97.18475930020213,[-0.4114583333333333],[0.09114583333333333],[1],[0],[0],[1.9427219000644982],['target'],,,,T4,001,2024-10-08_13h09.40.213,untitled,2024.1.5,None,2024-10-08 13h09.56.057675 +0530,
47,0,47,0,97.215100500267,,,,,,,,,,,,,97.18798460019752,5,0.017860200256109238,97.215100500267,97.215100500267,98.56699560023844,[0.033854166666666664],[0.37890625],[1],[0],[0],[1.3785991999320686],['target'],,,,T4,001,2024-10-08_13h09.40.213,untitled,2024.1.5,None,2024-10-08 13h09.56.057675 +0530,
48,0,48,0,98.59694790001959,,,,,,,,,,,,,98.57013700017706,5,0.018067500088363886,98.59694790001959,98.59694790001959,103.44539900030941,[-0.08723958333333333],[-0.14973958333333334],[1],[0],[0],[4.8747755996882915],['target'],,,,T4,001,2024-10-08_13h09.40.213,untitled,2024.1.5,None,2024-10-08 13h09.56.057675 +0530,
49,0,49,0,103.49526910018176,,,,,,,,,,,,,103.4488727003336,10,0.032996200025081635,103.49526910018176,103.49526910018176,105.24394910037518,[-0.3736979166666667],[0.4895833333333333],[1],[0],[0],[1.7946616001427174],['target'],,,,T4,001,2024-10-08_13h09.40.213,untitled,2024.1.5,None,2024-10-08 13h09.56.057675 +0530,
50,0,50,0,105.29653060017154,,,,,,,,,,,,,105.24704200029373,10,0.03362690005451441,105.29653060017154,105.29653060017154,106.20915460027754,[-0.37109375],[0.4765625],[1],[0],[0],[0.9616666999645531],['target'],,,,T4,001,2024-10-08_13h09.40.213,untitled,2024.1.5,None,2024-10-08 13h09.56.057675 +0530,
51,0,51,0,106.28277230029926,,,,,,,,,,,,,106.21295320009813,10,0.051514599937945604,106.28277230029926,106.28277230029926,107.94086410012096,[-0.4817708333333333],[0.01171875],[1],[0],[0],[1.7272483999840915],['target'],,,,T4,001,2024-10-08_13h09.40.213,untitled,2024.1.5,None,2024-10-08 13h09.56.057675 +0530,
52,0,52,0,107.99097790010273,,,,,,,,,,,,,107.94724410027266,5,0.034607899840921164,107.99097790010273,107.99097790010273,110.10872170003131,[0.4153645833333333],[0.4049479166666667],[1],[0],[0],[2.16061079967767],['target'],,,,T4,001,2024-10-08_13h09.40.213,untitled,2024.1.5,None,2024-10-08 13h09.56.057675 +0530,
53,0,53,0,110.17082660039887,,,,,,,,,,,,,110.11706920014694,5,0.035032100044190884,110.17082660039887,110.17082660039887,112.22053140029311,[0.4583333333333333],[0.3229166666666667],[1],[0],[0],[2.102884900290519],['target'],,,,T4,001,2024-10-08_13h09.40.213,untitled,2024.1.5,None,2024-10-08 13h09.56.057675 +0530,
54,0,54,0,112.26886459998786,,,,,,,,,,,,,112.22525939997286,5,0.024239799939095974,112.26886459998786,112.26886459998786,114.5014805002138,[0.07161458333333333],[-0.00390625],[1],[0],[0],[2.2757088001817465],['target'],,,,T4,001,2024-10-08_13h09.40.213,untitled,2024.1.5,None,2024-10-08 13h09.56.057675 +0530,
55,0,55,0,114.55745080020279,,,,,,,,,,,,,114.50616089999676,10,0.0360939004458487,114.55745080020279,114.55745080020279,116.79882370028645,[0.1484375],[-0.4830729166666667],[1],[0],[0],[2.2921931999735534],['target'],,,,T4,001,2024-10-08_13h09.40.213,untitled,2024.1.5,None,2024-10-08 13h09.56.057675 +0530,
56,0,56,0,116.84840330015868,,,,,,,,,,,,,116.80200200015679,10,0.03380140010267496,116.84840330015868,116.84840330015868,120.01212100032717,[0.036458333333333336],[0.1015625],[1],[0],[0],[3.209643299691379],['target'],,,,T4,001,2024-10-08_13h09.40.213,untitled,2024.1.5,None,2024-10-08 13h09.56.057675 +0530,
57,0,57,0,120.06441120011732,,,,,,,,,,,,,120.01616510003805,10,0.035489900037646294,120.06441120011732,120.06441120011732,121.56072100019082,[-0.21744791666666666],[0.3697916666666667],[1],[0],[0],[1.544062899891287],['target'],,,,T4,001,2024-10-08_13h09.40.213,untitled,2024.1.5,None,2024-10-08 13h09.56.057675 +0530,
58,0,58,0,121.59237120021135,,,,,,,,,,,,,121.56414700020105,5,0.020459000021219254,121.59237120021135,121.59237120021135,123.52649610023946,[0.18619791666666666],[-0.06640625],[1],[0],[0],[1.9618155001662672],['target'],,,,T4,001,2024-10-08_13h09.40.213,untitled,2024.1.5,None,2024-10-08 13h09.56.057675 +0530,
59,0,59,0,123.55826190020889,,,,,,,,,,,,,123.53078939998522,5,0.01859290013089776,123.55826190020889,123.55826190020889,124.8408330003731,[-0.22395833333333334],[0.1171875],[1],[0],[0],[1.3095904998481274],['target'],,,,T4,001,2024-10-08_13h09.40.213,untitled,2024.1.5,None,2024-10-08 13h09.56.057675 +0530,
60,0,60,0,124.89386590011418,,,,,,,,,,,,,124.84469630010426,10,0.033801000099629164,124.89386590011418,124.89386590011418,126.60709660034627,[-0.4934895833333333],[0.4036458333333333],[1],[0],[0],[1.7618392002768815],['target'],,,,T4,001,2024-10-08_13h09.40.213,untitled,2024.1.5,None,2024-10-08 13h09.56.057675 +0530,
61,0,61,0,126.63628070009872,,,,,,,,,,,,,126.61118650017306,5,0.017751900013536215,126.63628070009872,126.63628070009872,128.87045660009608,[0.4114583333333333],[0.10677083333333333],[1],[0],[0],[2.258804799988866],['target'],,,,T4,001,2024-10-08_13h09.40.213,untitled,2024.1.5,None,2024-10-08 13h09.56.057675 +0530,
62,0,62,0,128.92016340000555,,,,,,,,,,,,,128.87356050033122,10,0.03364970022812486,128.92016340000555,128.92016340000555,131.13459750032052,[-0.49609375],[-0.3489583333333333],[1],[0],[0],[2.2605339996516705],['target'],,,,T4,001,2024-10-08_13h09.40.213,untitled,2024.1.5,None,2024-10-08 13h09.56.057675 +0530,
63,0,63,0,131.16268810024485,,,,,,,,,,,,,131.13757170038298,5,0.01668020011857152,131.16268810024485,131.16268810024485,132.73339940002188,[-0.3763020833333333],[0.23307291666666666],[1],[0],[0],[1.5953242997638881],['target'],,,,T4,001,2024-10-08_13h09.40.213,untitled,2024.1.5,None,2024-10-08 13h09.56.057675 +0530,
64,0,64,0,132.77086309995502,,,,,,,,,,,,,132.73743600025773,5,0.018864900339394808,132.77086309995502,132.77086309995502,134.14908110024408,[-0.11067708333333333],[0.10677083333333333],[1],[0],[0],[1.4111707000993192],['target'],,,,T4,001,2024-10-08_13h09.40.213,untitled,2024.1.5,None,2024-10-08 13h09.56.057675 +0530,
65,0,65,0,134.20011260034516,,,,,,,,,,,,,134.1530846003443,10,0.03419520007446408,134.20011260034516,134.20011260034516,136.7124032001011,[-0.026041666666666668],[-0.4153645833333333],[1],[0],[0],[2.558784999884665],['target'],,,,T4,001,2024-10-08_13h09.40.213,untitled,2024.1.5,None,2024-10-08 13h09.56.057675 +0530,
66,0,66,0,136.74148340011016,,,,,,,,,,,,,136.71607930026948,5,0.017360199708491564,136.74148340011016,136.74148340011016,138.3783883000724,[-0.4361979166666667],[0.09114583333333333],[1],[0],[0],[1.6618141001090407],['target'],,,,T4,001,2024-10-08_13h09.40.213,untitled,2024.1.5,None,2024-10-08 13h09.56.057675 +0530,
67,0,67,0,138.4099540002644,,,,,,,,,,,,,138.38247890025377,5,0.019776300061494112,138.4099540002644,138.4099540002644,141.9075510003604,[0.24609375],[-0.4609375],[1],[0],[0],[3.524604100268334],['target'],,,,T4,001,2024-10-08_13h09.40.213,untitled,2024.1.5,None,2024-10-08 13h09.56.057675 +0530,
68,0,68,0,141.95960179995745,,,,,,,,,,,,,141.91133360005915,10,0.033768799621611834,141.95960179995745,141.95960179995745,144.3925119000487,[0.18619791666666666],[-0.03515625],[1],[0],[0],[2.480714099947363],['target'],,,,T4,001,2024-10-08_13h09.40.213,untitled,2024.1.5,None,2024-10-08 13h09.56.057675 +0530,
69,0,69,0,144.46397780021653,,,,,,,,,,,,,144.39606820000336,10,0.04278249992057681,144.46397780021653,144.46397780021653,146.76923800026998,[-0.4635416666666667],[-0.23177083333333334],[1],[0],[0],[2.372646000236273],['target'],,,,T4,001,2024-10-08_13h09.40.213,untitled,2024.1.5,None,2024-10-08 13h09.56.057675 +0530,
70,0,70,0,146.79930480010808,,,,,,,,,,,,,146.7726306002587,5,0.018293400295078754,146.79930480010808,146.79930480010808,148.16889190021902,[-0.06510416666666667],[0.1484375],[1],[0],[0],[1.395747299771756],['target'],,,,T4,001,2024-10-08_13h09.40.213,untitled,2024.1.5,None,2024-10-08 13h09.56.057675 +0530,
71,0,71,0,148.23170850006863,,,,,,,,,,,,,148.17357900040224,10,0.04331769980490208,148.23170850006863,148.23170850006863,150.5160950999707,[-0.48046875],[-0.203125],[1],[0],[0],[2.3420389997772872],['target'],,,,T4,001,2024-10-08_13h09.40.213,untitled,2024.1.5,None,2024-10-08 13h09.56.057675 +0530,
72,0,72,0,150.54493370000273,,,,,,,,,,,,,150.51921290019527,5,0.01815570006147027,150.54493370000273,150.54493370000273,152.71447110036388,[-0.06640625],[-0.28125],[1],[0],[0],[2.1947738002054393],['target'],,,,T4,001,2024-10-08_13h09.40.213,untitled,2024.1.5,None,2024-10-08 13h09.56.057675 +0530,
73,0,73,0,152.76328549999744,,,,,,,,,,,,,152.7183214002289,10,0.03338710032403469,152.76328549999744,152.76328549999744,154.8332919999957,[0.4700520833333333],[0.20182291666666666],[1],[0],[0],[2.1140724001452327],['target'],,,,T4,001,2024-10-08_13h09.40.213,untitled,2024.1.5,None,2024-10-08 13h09.56.057675 +0530,
74,0,74,0,154.93176149995998,,,,,,,,,,,,,154.84130359999835,10,0.0740918000228703,154.93176149995998,154.93176149995998,156.66453459998593,[0.4361979166666667],[-0.15104166666666666],[1],[0],[0],[1.8226594999432564],['target'],,,,T4,001,2024-10-08_13h09.40.213,untitled,2024.1.5,None,2024-10-08 13h09.56.057675 +0530,
75,0,75,0,156.71271939994767,,,,,,,,,,,,,156.6691308999434,10,0.03277820022776723,156.71271939994767,156.71271939994767,158.57631770009175,[0.0234375],[-0.4635416666666667],[1],[0],[0],[1.9065749999135733],['target'],,,,T4,001,2024-10-08_13h09.40.213,untitled,2024.1.5,None,2024-10-08 13h09.56.057675 +0530,
76,0,76,0,158.63102150009945,,,,,,,,,,,,,158.58202130021527,10,0.038581700064241886,158.63102150009945,158.63102150009945,161.40607620030642,[-0.01953125],[0.4309895833333333],[1],[0],[0],[2.823490499984473],['target'],,,,T4,001,2024-10-08_13h09.40.213,untitled,2024.1.5,None,2024-10-08 13h09.56.057675 +0530,
77,0,77,0,161.45884170010686,,,,,,,,,,,,,161.4103944003582,10,0.037480900064110756,161.45884170010686,161.45884170010686,163.4862314001657,[0.03125],[0.20442708333333334],[1],[0],[0],[2.0753083997406065],['target'],,,,T4,001,2024-10-08_13h09.40.213,untitled,2024.1.5,None,2024-10-08 13h09.56.057675 +0530,
78,0,78,0,163.51648440025747,,,,,,,,,,,,,163.48938430007547,5,0.017325500026345253,163.51648440025747,163.51648440025747,165.95052279997617,[0.3776041666666667],[-0.3268229166666667],[1],[0],[0],[2.4606479997746646],['target'],,,,T4,001,2024-10-08_13h09.40.213,untitled,2024.1.5,None,2024-10-08 13h09.56.057675 +0530,
79,0,79,0,165.97882920037955,,,,,,,,,,,,,165.95370590034872,5,0.017813399899750948,165.97882920037955,165.97882920037955,167.71548800030723,[0.07942708333333333],[-0.4505208333333333],[1],[0],[0],[1.761330600362271],['target'],,,,T4,001,2024-10-08_13h09.40.213,untitled,2024.1.5,None,2024-10-08 13h09.56.057675 +0530,
80,0,80,0,167.74528359994292,,,,,,,,,,,,,167.7192289000377,5,0.017977199982851744,167.74528359994292,167.74528359994292,170.56304519996047,[0.28515625],[0.4791666666666667],[1],[0],[0],[2.843317599967122],['target'],,,,T4,001,2024-10-08_13h09.40.213,untitled,2024.1.5,None,2024-10-08 13h09.56.057675 +0530,
81,0,81,0,170.6168877002783,,,,,,,,,,,,,170.56689020013437,10,0.033648400101810694,170.6168877002783,170.6168877002783,172.6103142001666,[0.05859375],[0.4830729166666667],[1],[0],[0],[2.0430116998031735],['target'],,,,T4,001,2024-10-08_13h09.40.213,untitled,2024.1.5,None,2024-10-08 13h09.56.057675 +0530,
82,0,82,0,172.6660346002318,,,,,,,,,,,,,172.61360560031608,10,0.0338196000084281,172.6660346002318,172.6660346002318,174.29173360019922,[-0.2630208333333333],[-0.026041666666666668],[1],[0],[0],[1.6776992999948561],['target'],,,,T4,001,2024-10-08_13h09.40.213,untitled,2024.1.5,None,2024-10-08 13h09.56.057675 +0530,
83,0,83,0,174.34344900026917,,,,,,,,,,,,,174.29487410001457,10,0.03345149988308549,174.34344900026917,174.34344900026917,175.8747723000124,[0.18359375],[0.01171875],[1],[0],[0],[1.5794655000790954],['target'],,,,T4,001,2024-10-08_13h09.40.213,untitled,2024.1.5,None,2024-10-08 13h09.56.057675 +0530,
84,0,84,0,175.92719770036638,,,,,,,,,,,,,175.87788829999045,10,0.03372619999572635,175.92719770036638,175.92719770036638,177.92252460028976,[-0.2591145833333333],[-0.16276041666666666],[1],[0],[0],[2.0441275001503527],['target'],,,,T4,001,2024-10-08_13h09.40.213,untitled,2024.1.5,None,2024-10-08 13h09.56.057675 +0530,
85,0,85,0,177.97610210021958,,,,,,,,,,,,,177.92661760002375,10,0.037081700284034014,177.97610210021958,177.97610210021958,181.15173920011148,[-0.4036458333333333],[-0.4361979166666667],[1],[0],[0],[3.2246342999860644],['target'],,,,T4,001,2024-10-08_13h09.40.213,untitled,2024.1.5,None,2024-10-08 13h09.56.057675 +0530,
86,0,86,0,181.2032584999688,,,,,,,,,,,,,181.15485880011693,10,0.03394730016589165,181.2032584999688,181.2032584999688,182.80473830038682,[-0.23307291666666666],[0.26953125],[1],[0],[0],[1.6493069003336132],['target'],,,,T4,001,2024-10-08_13h09.40.213,untitled,2024.1.5,None,2024-10-08 13h09.56.057675 +0530,
87,0,87,0,182.831565100234,,,,,,,,,,,,,182.80795910023153,5,0.016489299945533276,182.831565100234,182.831565100234,184.71801650011912,[-0.3776041666666667],[-0.01953125],[1],[0],[0],[1.909272599965334],['target'],,,,T4,001,2024-10-08_13h09.40.213,untitled,2024.1.5,None,2024-10-08 13h09.56.057675 +0530,
88,0,88,0,184.7726479000412,,,,,,,,,,,,,184.72403110004961,10,0.03742880001664162,184.7726479000412,184.7726479000412,186.39707070030272,[0.057291666666666664],[0.4036458333333333],[1],[0],[0],[1.6725671999156475],['target'],,,,T4,001,2024-10-08_13h09.40.213,untitled,2024.1.5,None,2024-10-08 13h09.56.057675 +0530,
89,0,89,0,186.42708720033988,,,,,,,,,,,,,186.40025930013508,5,0.017105699982494116,186.42708720033988,186.42708720033988,187.76283620018512,[-0.4361979166666667],[0.16015625],[1],[0],[0],[1.3620704002678394],['target'],,,,T4,001,2024-10-08_13h09.40.213,untitled,2024.1.5,None,2024-10-08 13h09.56.057675 +0530,
90,0,90,0,187.79172890027985,,,,,,,,,,,,,187.7660439000465,5,0.017507600132375956,187.79172890027985,187.79172890027985,189.1805571001023,[-0.09114583333333333],[0.4114583333333333],[1],[0],[0],[1.4136529001407325],['target'],,,,T4,001,2024-10-08_13h09.40.213,untitled,2024.1.5,None,2024-10-08 13h09.56.057675 +0530,
91,0,91,0,189.2587570999749,,,,,,,,,,,,,189.18989490019158,10,0.05448220018297434,189.2587570999749,189.2587570999749,191.2932893000543,[-0.0859375],[-0.17447916666666666],[1],[0],[0],[2.1028661001473665],['target'],,,,T4,001,2024-10-08_13h09.40.213,untitled,2024.1.5,None,2024-10-08 13h09.56.057675 +0530,
92,0,92,0,191.3233870002441,,,,,,,,,,,,,191.2972287000157,5,0.01809110026806593,191.3233870002441,191.3233870002441,193.5749782002531,[0.3880208333333333],[-0.4127604166666667],[1],[0],[0],[2.2771683000028133],['target'],,,,T4,001,2024-10-08_13h09.40.213,untitled,2024.1.5,None,2024-10-08 13h09.56.057675 +0530,
93,0,93,0,193.62829950032756,,,,,,,,,,,,,193.57895790040493,10,0.03406130010262132,193.62829950032756,193.62829950032756,195.35481030028313,[0.37890625],[0.3333333333333333],[1],[0],[0],[1.7752888002432883],['target'],,,,T4,001,2024-10-08_13h09.40.213,untitled,2024.1.5,None,2024-10-08 13h09.56.057675 +0530,
94,0,94,0,195.41008089995012,,,,,,,,,,,,,195.35810940014198,10,0.03777220007032156,195.41008089995012,195.41008089995012,197.22010940033942,[-0.1328125],[0.4361979166666667],[1],[0],[0],[1.8615209003910422],['target'],,,,T4,001,2024-10-08_13h09.40.213,untitled,2024.1.5,None,2024-10-08 13h09.56.057675 +0530,
95,0,95,0,197.2763511002995,,,,,,,,,,,,,197.2244397001341,10,0.04076230013743043,197.2763511002995,197.2763511002995,198.95244539994746,[-0.4791666666666667],[0.07552083333333333],[1],[0],[0],[1.7275419998914003],['target'],,,,T4,001,2024-10-08_13h09.40.213,untitled,2024.1.5,None,2024-10-08 13h09.56.057675 +0530,
96,0,96,0,199.00525879999623,,,,,,,,,,,,,198.9556748000905,10,0.03351179976016283,199.00525879999623,199.00525879999623,202.16633519995958,[-0.13671875],[-0.39453125],[1],[0],[0],[3.2100472999736667],['target'],,,,T4,001,2024-10-08_13h09.40.213,untitled,2024.1.5,None,2024-10-08 13h09.56.057675 +0530,
97,0,97,0,202.1942001003772,,,,,,,,,,,,,202.17002269998193,5,0.016942800022661686,202.1942001003772,202.1942001003772,205.0337085002102,[-0.2591145833333333],[0.1171875],[1],[0],[0],[2.8628944996744394],['target'],,,,T4,001,2024-10-08_13h09.40.213,untitled,2024.1.5,None,2024-10-08 13h09.56.057675 +0530,
98,0,98,0,205.12810990028083,,,,,,,,,,,,,205.04117420036346,10,0.06438830029219389,205.12810990028083,205.12810990028083,207.99193360004574,[0.0546875],[0.078125],[1],[0],[0],[2.9502937998622656],['target'],,,,T4,001,2024-10-08_13h09.40.213,untitled,2024.1.5,None,2024-10-08 13h09.56.057675 +0530,
99,0,99,0,208.02071220008656,,,,,,,,,,,,,207.99506250023842,5,0.01754349982365966,208.02071220008656,208.02071220008656,209.55914170015603,[0.2265625],[0.25],[1],[0],[0],[1.563462299760431],['target'],,,,T4,001,2024-10-08_13h09.40.213,untitled,2024.1.5,None,2024-10-08 13h09.56.057675 +0530,
100,0,100,0,209.62533890036866,,,,,,,,,,,,,209.56339980009943,10,0.04348220024257898,209.62533890036866,209.62533890036866,212.6213919003494,[0.22265625],[-0.34765625],[1],[0],[0],[3.057540100067854],['target'],,,,T4,001,2024-10-08_13h09.40.213,untitled,2024.1.5,None,2024-10-08 13h09.56.057675 +0530,
101,0,101,0,212.67117660026997,,,,,,,,,,,,,212.62463650014251,10,0.0336748999543488,212.67117660026997,212.67117660026997,214.30278370017186,[-0.12109375],[-0.01953125],[1],[0],[0],[1.6777331000193954],['target'],,,,T4,001,2024-10-08_13h09.40.213,untitled,2024.1.5,None,2024-10-08 13h09.56.057675 +0530,
102,0,102,0,214.3336968002841,,,,,,,,,,,,,214.30592800024897,5,0.01782769989222288,214.3336968002841,214.3336968002841,216.10203360021114,[0.2942708333333333],[-0.015625],[1],[0],[0],[1.7956039002165198],['target'],,,,T4,001,2024-10-08_13h09.40.213,untitled,2024.1.5,None,2024-10-08 13h09.56.057675 +0530,
103,0,103,0,216.13166550034657,,,,,,,,,,,,,216.10606610029936,5,0.018104900140315294,216.13166550034657,216.13166550034657,217.68429670017213,[-0.3984375],[0.2877604166666667],[1],[0],[0],[1.5774902999401093],['target'],,,,T4,001,2024-10-08_13h09.40.213,untitled,2024.1.5,None,2024-10-08 13h09.56.057675 +0530,
104,0,104,0,217.75074380030856,,,,,,,,,,,,,217.69199099997059,10,0.0480812001042068,217.75074380030856,217.75074380030856,219.53178520035,[0.16927083333333334],[-0.10286458333333333],[1],[0],[0],[1.8392564998939633],['target'],,,,T4,001,2024-10-08_13h09.40.213,untitled,2024.1.5,None,2024-10-08 13h09.56.057675 +0530,
105,0,105,0,219.56272260006517,,,,,,,,,,,,,219.5357540003024,5,0.01828340021893382,219.56272260006517,219.56272260006517,221.43020670022815,[-0.48046875],[-0.33203125],[1],[0],[0],[1.893883999902755],['target'],,,,T4,001,2024-10-08_13h09.40.213,untitled,2024.1.5,None,2024-10-08 13h09.56.057675 +0530,
106,0,106,0,221.52206000033766,,,,,,,,,,,,,221.43581499997526,10,0.05772930011153221,221.52206000033766,221.52206000033766,224.22730550030246,[0.3424479166666667],[0.390625],[1],[0],[0],[2.7910414999350905],['target'],,,,T4,001,2024-10-08_13h09.40.213,untitled,2024.1.5,None,2024-10-08 13h09.56.057675 +0530,
107,0,107,0,224.27771870000288,,,,,,,,,,,,,224.2306448002346,10,0.033094600308686495,224.27771870000288,224.27771870000288,226.09205820038915,[0.3541666666666667],[0.0625],[1],[0],[0],[1.8609152999706566],['target'],,,,T4,001,2024-10-08_13h09.40.213,untitled,2024.1.5,None,2024-10-08 13h09.56.057675 +0530,
108,0,108,0,226.12009049998596,,,,,,,,,,,,,226.0952044003643,5,0.017957599833607674,226.12009049998596,226.12009049998596,227.98713569995016,[-0.21875],[0.2890625],[1],[0],[0],[1.8908318998292089],['target'],,,,T4,001,2024-10-08_13h09.40.213,untitled,2024.1.5,None,2024-10-08 13h09.56.057675 +0530,
109,0,109,0,228.1185063002631,,,,,,,,,,,,,227.99954480025917,10,0.08219069987535477,228.1185063002631,228.1185063002631,230.07238880032673,[-0.4635416666666667],[-0.140625],[1],[0],[0],[2.072244899813086],['target'],,,,T4,001,2024-10-08_13h09.40.213,untitled,2024.1.5,None,2024-10-08 13h09.56.057675 +0530,
110,0,110,0,230.1282220003195,,,,,,,,,,,,,230.07554650027305,10,0.038425800390541553,230.1282220003195,230.1282220003195,231.95439540036023,[-0.29296875],[0.3190104166666667],[1],[0],[0],[1.8782651000656188],['target'],,,,T4,001,2024-10-08_13h09.40.213,untitled,2024.1.5,None,2024-10-08 13h09.56.057675 +0530,
111,0,111,0,232.0386404003948,,,,,,,,,,,,,231.95913329999894,5,0.052639400120824575,232.0386404003948,232.0386404003948,233.30323400022462,[-0.3697916666666667],[-0.013020833333333334],[1],[0],[0],[1.3434751001186669],['target'],,,,T4,001,2024-10-08_13h09.40.213,untitled,2024.1.5,None,2024-10-08 13h09.56.057675 +0530,
112,0,112,0,233.3384182001464,,,,,,,,,,,,,233.3090396001935,5,0.020721300039440393,233.3384182001464,233.3384182001464,234.88344880007207,[0.046875],[0.3528645833333333],[1],[0],[0],[1.5739007000811398],['target'],,,,T4,001,2024-10-08_13h09.40.213,untitled,2024.1.5,None,2024-10-08 13h09.56.057675 +0530,
113,0,113,0,234.93054170021787,,,,,,,,,,,,,234.88723909994587,10,0.03217749996110797,234.93054170021787,234.93054170021787,236.1816953001544,[-0.30078125],[0.0625],[1],[0],[0],[1.2939446000382304],['target'],,,,T4,001,2024-10-08_13h09.40.213,untitled,2024.1.5,None,2024-10-08 13h09.56.057675 +0530,
114,0,114,0,236.25649440009147,,,,,,,,,,,,,236.1858398001641,10,0.03858939977362752,236.25649440009147,236.25649440009147,238.03111260011792,[-0.032552083333333336],[-0.4348958333333333],[1],[0],[0],[1.84474189998582],['target'],,,,T4,001,2024-10-08_13h09.40.213,untitled,2024.1.5,None,2024-10-08 13h09.56.057675 +0530,
115,0,115,0,238.06717690033838,,,,,,,,,,,,,238.0360751003027,5,0.0195376998744905,238.06717690033838,238.06717690033838,240.22916520014405,[0.37890625],[0.4596354166666667],[1],[0],[0],[2.192561499774456],['target'],,,,T4,001,2024-10-08_13h09.40.213,untitled,2024.1.5,None,2024-10-08 13h09.56.057675 +0530,
116,0,116,0,240.2776510999538,,,,,,,,,,,,,240.23328820010647,10,0.032795500010252,240.2776510999538,240.2776510999538,242.1098693003878,[-0.1015625],[-0.3802083333333333],[1],[0],[0],[1.8760898998007178],['target'],,,,T4,001,2024-10-08_13h09.40.213,untitled,2024.1.5,None,2024-10-08 13h09.56.057675 +0530,
117,0,117,0,242.15916120028123,,,,,,,,,,,,,242.11317460006103,10,0.03364039957523346,242.15916120028123,242.15916120028123,245.18986590020359,[0.39453125],[-0.1953125],[1],[0],[0],[3.0762227000668645],['target'],,,,T4,001,2024-10-08_13h09.40.213,untitled,2024.1.5,None,2024-10-08 13h09.56.057675 +0530,
118,0,118,0,245.21876670001075,,,,,,,,,,,,,245.1929864003323,5,0.017718899995088577,245.21876670001075,245.21876670001075,246.7056190003641,[0.1796875],[0.34765625],[1],[0],[0],[1.5121953003108501],['target'],,,,T4,001,2024-10-08_13h09.40.213,untitled,2024.1.5,None,2024-10-08 13h09.56.057675 +0530,
119,0,119,0,246.7339107003063,,,,,,,,,,,,,246.70886840019375,5,0.017440499737858772,246.7339107003063,246.7339107003063,249.41927220020443,[-0.2955729166666667],[0.15234375],[1],[0],[0],[2.709721500054002],['target'],,,,T4,001,2024-10-08_13h09.40.213,untitled,2024.1.5,None,2024-10-08 13h09.56.057675 +0530,
120,0,120,0,249.4522426002659,,,,,,,,,,,,,249.425284600351,5,0.019725999794900417,249.4522426002659,249.4522426002659,250.53528230031952,[-0.28125],[-0.07942708333333333],[1],[0],[0],[1.109495900105685],['target'],,,,T4,001,2024-10-08_13h09.40.213,untitled,2024.1.5,None,2024-10-08 13h09.56.057675 +0530,
121,0,121,0,250.5849298001267,,,,,,,,,,,,,250.53904139995575,10,0.03318680031225085,250.5849298001267,250.5849298001267,252.38302380032837,[-0.4609375],[-0.024739583333333332],[1],[0],[0],[1.843537800014019],['target'],,,,T4,001,2024-10-08_13h09.40.213,untitled,2024.1.5,None,2024-10-08 13h09.56.057675 +0530,
122,0,122,0,252.41053620027378,,,,,,,,,,,,,252.38615960022435,5,0.01638750033453107,252.41053620027378,252.41053620027378,254.6316098002717,[0.30078125],[0.48046875],[1],[0],[0],[2.245035999920219],['target'],,,,T4,001,2024-10-08_13h09.40.213,untitled,2024.1.5,None,2024-10-08 13h09.56.057675 +0530,
123,0,123,0,254.68332640035078,,,,,,,,,,,,,254.63463090034202,10,0.03206499991938472,254.68332640035078,254.68332640035078,258.076792600099,[0.09895833333333333],[-0.3580729166666667],[1],[0],[0],[3.4417026001028717],['target'],,,,T4,001,2024-10-08_13h09.40.213,untitled,2024.1.5,None,2024-10-08 13h09.56.057675 +0530,
124,0,124,0,258.1256842999719,,,,,,,,,,,,,258.0798422000371,10,0.03221820015460253,258.1256842999719,258.1256842999719,259.43566900026053,[0.045572916666666664],[0.18098958333333334],[1],[0],[0],[1.3552449997514486],['target'],,,,T4,001,2024-10-08_13h09.40.213,untitled,2024.1.5,None,2024-10-08 13h09.56.057675 +0530,
125,0,125,0,259.46478940034285,,,,,,,,,,,,,259.4407615000382,5,0.017191499937325716,259.46478940034285,259.46478940034285,261.90779090020806,[0.13411458333333334],[-0.16927083333333334],[1],[0],[0],[2.4664113000035286],['target'],,,,T4,001,2024-10-08_13h09.40.213,untitled,2024.1.5,None,2024-10-08 13h09.56.057675 +0530,
126,0,126,0,261.9813549001701,,,,,,,,,,,,,261.9123911000788,10,0.05588620016351342,261.9813549001701,261.9813549001701,264.0384218003601,[-0.06380208333333333],[0.4479166666666667],[1],[0],[0],[2.125587200280279],['target'],,,,T4,001,2024-10-08_13h09.40.213,untitled,2024.1.5,None,2024-10-08 13h09.56.057675 +0530,
127,0,127,0,264.0663785999641,,,,,,,,,,,,,264.0415427000262,5,0.01708739995956421,264.0663785999641,264.0663785999641,266.8027751999907,[-0.3984375],[-0.31640625],[1],[0],[0],[2.7607904002070427],['target'],,,,T4,001,2024-10-08_13h09.40.213,untitled,2024.1.5,None,2024-10-08 13h09.56.057675 +0530,
128,0,128,0,266.8411854002625,,,,,,,,,,,,,266.8078461000696,5,0.021925699897110462,266.8411854002625,266.8411854002625,269.999988600146,[-0.4830729166666667],[-0.46484375],[1],[0],[0],[3.191656599752605],['target'],,,,T4,001,2024-10-08_13h09.40.213,untitled,2024.1.5,None,2024-10-08 13h09.56.057675 +0530,
129,0,129,0,270.03025950025767,,,,,,,,,,,,,270.0041045001708,5,0.018249399960041046,270.03025950025767,270.03025950025767,272.12923630001023,[-0.3619791666666667],[-0.061197916666666664],[1],[0],[0],[2.124574700370431],['target'],,,,T4,001,2024-10-08_13h09.40.213,untitled,2024.1.5,None,2024-10-08 13h09.56.057675 +0530,
130,0,130,0,272.1932697002776,,,,,,,,,,,,,272.13201810000464,10,0.04834830015897751,272.1932697002776,272.1932697002776,273.7654926003888,[0.18359375],[0.2890625],[1],[0],[0],[1.6328103998675942],['target'],,,,T4,001,2024-10-08_13h09.40.213,untitled,2024.1.5,None,2024-10-08 13h09.56.057675 +0530,
131,0,131,0,273.8206051001325,,,,,,,,,,,,,273.7712314003147,10,0.038176600355654955,273.8206051001325,273.8206051001325,275.7436553002335,[-0.4830729166666667],[-0.4388020833333333],[1],[0],[0],[1.9719098000787199],['target'],,,,T4,001,2024-10-08_13h09.40.213,untitled,2024.1.5,None,2024-10-08 13h09.56.057675 +0530,
132,0,132,0,275.7802104000002,,,,,,,,,,,,,275.7484154002741,5,0.02039089985191822,275.7802104000002,275.7802104000002,277.3578067002818,[-0.3059895833333333],[-0.3346354166666667],[1],[0],[0],[1.6089799995534122],['target'],,,,T4,001,2024-10-08_13h09.40.213,untitled,2024.1.5,None,2024-10-08 13h09.56.057675 +0530,
133,0,133,0,277.40531680034474,,,,,,,,,,,,,277.36120080016553,10,0.03242310043424368,277.40531680034474,277.40531680034474,279.9227423002012,[0.5026041666666666],[-0.24869791666666666],[1],[0],[0],[2.560895700007677],['target'],,,,T4,001,2024-10-08_13h09.40.213,untitled,2024.1.5,None,2024-10-08 13h09.56.057675 +0530,
134,0,134,0,279.9715837002732,,,,,,,,,,,,,279.9273787001148,10,0.033524499740451574,279.9715837002732,279.9715837002732,281.5541779999621,[-0.14453125],[-0.0625],[1],[0],[0],[1.626259199809283],['target'],,,,T4,001,2024-10-08_13h09.40.213,untitled,2024.1.5,None,2024-10-08 13h09.56.057675 +0530,
135,0,135,0,281.58162940014154,,,,,,,,,,,,,281.55726739997044,5,0.016082399990409613,281.58162940014154,281.58162940014154,283.7537989001721,[-0.10807291666666667],[-0.4466145833333333],[1],[0],[0],[2.1959779001772404],['target'],,,,T4,001,2024-10-08_13h09.40.213,untitled,2024.1.5,None,2024-10-08 13h09.56.057675 +0530,
136,0,136,0,283.8051448999904,,,,,,,,,,,,,283.7586970999837,10,0.03459460008889437,283.8051448999904,283.8051448999904,289.16335330018774,[0.24609375],[-0.29296875],[1],[0],[0],[5.404173899907619],['target'],,,,T4,001,2024-10-08_13h09.40.213,untitled,2024.1.5,None,2024-10-08 13h09.56.057675 +0530,
137,0,137,0,289.22148310020566,,,,,,,,,,,,,289.16719690011814,10,0.039626999758183956,289.22148310020566,289.22148310020566,291.0449451999739,[0.4557291666666667],[0.06770833333333333],[1],[0],[0],[1.8772781998850405],['target'],,,,T4,001,2024-10-08_13h09.40.213,untitled,2024.1.5,None,2024-10-08 13h09.56.057675 +0530,
138,0,138,0,291.0942727001384,,,,,,,,,,,,,291.04897650005296,10,0.033284499775618315,291.0942727001384,291.0942727001384,292.29377100011334,[0.21744791666666666],[0.14322916666666666],[1],[0],[0],[1.244359300006181],['target'],,,,T4,001,2024-10-08_13h09.40.213,untitled,2024.1.5,None,2024-10-08 13h09.56.057675 +0530,
139,0,139,0,292.3212620001286,,,,,,,,,,,,,292.2968947002664,5,0.016714700032025576,292.3212620001286,292.3212620001286,293.64339890005067,[0.24088541666666666],[-0.11458333333333333],[1],[0],[0],[1.3458242998458445],['target'],,,,T4,001,2024-10-08_13h09.40.213,untitled,2024.1.5,None,2024-10-08 13h09.56.057675 +0530,
140,0,140,0,293.73907060036436,,,,,,,,,,,,,293.64850140037015,10,0.06287889974191785,293.73907060036436,293.73907060036436,296.62897300021723,[-0.07161458333333333],[0.1484375],[1],[0],[0],[2.9797405996359885],['target'],,,,T4,001,2024-10-08_13h09.40.213,untitled,2024.1.5,None,2024-10-08 13h09.56.057675 +0530,
141,0,141,0,296.68271710025147,,,,,,,,,,,,,296.6351936003193,5,0.032174499705433846,296.68271710025147,296.68271710025147,298.02155750012025,[0.0078125],[0.16927083333333334],[1],[0],[0],[1.3858451996929944],['target'],,,,T4,001,2024-10-08_13h09.40.213,untitled,2024.1.5,None,2024-10-08 13h09.56.057675 +0530,
142,0,142,0,298.08068630006164,,,,,,,,,,,,,298.0256295003928,10,0.04055109992623329,298.08068630006164,298.08068630006164,299.1041345000267,[-0.19010416666666666],[0.19401041666666666],[1],[0],[0],[1.07805489981547],['target'],,,,T4,001,2024-10-08_13h09.40.213,untitled,2024.1.5,None,2024-10-08 13h09.56.057675 +0530,
143,0,143,0,299.13517930032685,,,,,,,,,,,,,299.1071736002341,5,0.016865199897438288,299.13517930032685,299.13517930032685,301.33553720032796,[-0.3997395833333333],[-0.048177083333333336],[1],[0],[0],[2.227902099955827],['target'],,,,T4,001,2024-10-08_13h09.40.213,untitled,2024.1.5,None,2024-10-08 13h09.56.057675 +0530,
144,0,144,0,301.3871379001066,,,,,,,,,,,,,301.33959870040417,10,0.03390870010480285,301.3871379001066,301.3871379001066,302.816980200354,[0.028645833333333332],[-0.1640625],[1],[0],[0],[1.47695600008592],['target'],,,,T4,001,2024-10-08_13h09.40.213,untitled,2024.1.5,None,2024-10-08 13h09.56.057675 +0530,
145,0,145,0,302.867635700386,,,,,,,,,,,,,302.8202458000742,10,0.03269780008122325,302.867635700386,302.867635700386,304.79799049999565,[0.005208333333333333],[-0.4401041666666667],[1],[0],[0],[1.976826500147581],['target'],,,,T4,001,2024-10-08_13h09.40.213,untitled,2024.1.5,None,2024-10-08 13h09.56.057675 +0530,
146,0,146,0,304.8705327999778,,,,,,,,,,,,,304.80410209996626,10,0.053137700073421,304.8705327999778,304.8705327999778,306.2797261001542,[0.3268229166666667],[-0.0546875],[1],[0],[0],[1.4751450000330806],['target'],,,,T4,001,2024-10-08_13h09.40.213,untitled,2024.1.5,None,2024-10-08 13h09.56.057675 +0530,
147,0,147,0,306.3307978003286,,,,,,,,,,,,,306.2828774000518,10,0.03270710026845336,306.3307978003286,306.3307978003286,307.49588620010763,[0.2265625],[0.07161458333333333],[1],[0],[0],[1.212604200001806],['target'],,,,T4,001,2024-10-08_13h09.40.213,untitled,2024.1.5,None,2024-10-08 13h09.56.057675 +0530,
148,0,148,0,307.6297983000986,,,,,,,,,,,,,307.49900230020285,10,0.11251890007406473,307.6297983000986,307.6297983000986,309.5776651003398,[0.3515625],[-0.16666666666666666],[1],[0],[0],[2.078153199981898],['target'],,,,T4,001,2024-10-08_13h09.40.213,untitled,2024.1.5,None,2024-10-08 13h09.56.057675 +0530,
149,0,149,0,309.62476520007476,,,,,,,,,,,,,309.58101880038157,10,0.03065170021727681,309.62476520007476,309.62476520007476,311.6080833002925,[-0.3671875],[-0.23828125],[1],[0],[0],[2.0265799001790583],['target'],,,,T4,001,2024-10-08_13h09.40.213,untitled,2024.1.5,None,2024-10-08 13h09.56.057675 +0530,
150,0,150,0,311.6573451999575,,,,,,,,,,,,,311.6111729000695,10,0.0314321001060307,311.6573451999575,311.6573451999575,312.9232340003364,[-0.14583333333333334],[0.0859375],[1],[0],[0],[1.3114981004036963],['target'],,,,T4,001,2024-10-08_13h09.40.213,untitled,2024.1.5,None,2024-10-08 13h09.56.057675 +0530,
151,0,151,0,312.9544899002649,,,,,,,,,,,,,312.92711650021374,5,0.017108699772506952,312.9544899002649,312.9544899002649,315.47209129994735,[-0.20052083333333334],[0.4427083333333333],[1],[0],[0],[2.544512400403619],['target'],,,,T4,001,2024-10-08_13h09.40.213,untitled,2024.1.5,None,2024-10-08 13h09.56.057675 +0530,
152,0,152,0,315.54038190003484,,,,,,,,,,,,,315.476620499976,10,0.043774399906396866,315.54038190003484,315.54038190003484,316.7154423003085,[-0.09505208333333333],[0.2565104166666667],[1],[0],[0],[1.2382435998879373],['target'],,,,T4,001,2024-10-08_13h09.40.213,untitled,2024.1.5,None,2024-10-08 13h09.56.057675 +0530,
153,0,153,0,316.74899110011756,,,,,,,,,,,,,316.721977900248,5,0.016770099755376577,316.74899110011756,316.74899110011756,317.8364896001294,[-0.06640625],[0.21744791666666666],[1],[0],[0],[1.113775699865073],['target'],,,,T4,001,2024-10-08_13h09.40.213,untitled,2024.1.5,None,2024-10-08 13h09.56.057675 +0530,
154,0,154,0,317.8772280002013,,,,,,,,,,,,,317.84247700031847,5,0.02155999979004264,317.8772280002013,317.8772280002013,319.5675178002566,[0.4166666666666667],[0.3307291666666667],[1],[0],[0],[1.7243550000712276],['target'],,,,T4,001,2024-10-08_13h09.40.213,untitled,2024.1.5,None,2024-10-08 13h09.56.057675 +0530,
155,0,155,0,319.62238600011915,,,,,,,,,,,,,319.57270310027525,10,0.033734799828380346,319.62238600011915,319.62238600011915,321.34847300034016,[0.4661458333333333],[0.4114583333333333],[1],[0],[0],[1.7752167000435293],['target'],,,,T4,001,2024-10-08_13h09.40.213,untitled,2024.1.5,None,2024-10-08 13h09.56.057675 +0530,
156,0,156,0,321.3760451003909,,,,,,,,,,,,,321.3514926000498,5,0.016382599715143442,321.3760451003909,321.3760451003909,322.800335300155,[-0.06510416666666667],[0.3125],[1],[0],[0],[1.4478446999564767],['target'],,,,T4,001,2024-10-08_13h09.40.213,untitled,2024.1.5,None,2024-10-08 13h09.56.057675 +0530,
157,0,157,0,322.853574400302,,,,,,,,,,,,,322.8067916999571,10,0.03621700033545494,322.853574400302,322.853574400302,324.49604330025613,[0.12369791666666667],[-0.10026041666666667],[1],[0],[0],[1.688718399964273],['target'],,,,T4,001,2024-10-08_13h09.40.213,untitled,2024.1.5,None,2024-10-08 13h09.56.057675 +0530,
158,0,158,0,324.5240595000796,,,,,,,,,,,,,324.49917070008814,5,0.017038299702107906,324.5240595000796,324.5240595000796,326.46079080039635,[-0.0625],[-0.07552083333333333],[1],[0],[0],[1.9611829998902977],['target'],,,,T4,001,2024-10-08_13h09.40.213,untitled,2024.1.5,None,2024-10-08 13h09.56.057675 +0530,
159,0,159,0,326.50950970035046,,,,,,,,,,,,,326.4641412999481,10,0.03278149990364909,326.50950970035046,326.50950970035046,328.15881410008296,[-0.12239583333333333],[0.10546875],[1],[0],[0],[1.6941367001272738],['target'],,,,T4,001,2024-10-08_13h09.40.213,untitled,2024.1.5,None,2024-10-08 13h09.56.057675 +0530,
160,0,160,0,328.23371930001304,,,,,,,,,,,,,328.1640675002709,10,0.048293800093233585,328.23371930001304,328.23371930001304,331.2222762000747,[0.4700520833333333],[-0.3138020833333333],[1],[0],[0],[3.0577166001312435],['target'],,,,T4,001,2024-10-08_13h09.40.213,untitled,2024.1.5,None,2024-10-08 13h09.56.057675 +0530,
161,0,161,0,331.2520143003203,,,,,,,,,,,,,331.22561880014837,5,0.01753589976578951,331.2520143003203,331.2520143003203,333.60376040032133,[-0.4830729166666667],[0.4440104166666667],[1],[0],[0],[2.377596899867058],['target'],,,,T4,001,2024-10-08_13h09.40.213,untitled,2024.1.5,None,2024-10-08 13h09.56.057675 +0530,
162,0,162,0,333.6334567000158,,,,,,,,,,,,,333.60796379996464,5,0.01783619960770011,333.6334567000158,333.6334567000158,338.3489678003825,[0.20182291666666666],[0.14713541666666666],[1],[0],[0],[4.740503100212663],['target'],,,,T4,001,2024-10-08_13h09.40.213,untitled,2024.1.5,None,2024-10-08 13h09.56.057675 +0530,
163,0,163,0,338.3774606999941,,,,,,,,,,,,,338.3526250002906,5,0.016931799706071615,338.3774606999941,338.3774606999941,341.1464405003935,[0.4427083333333333],[-0.3515625],[1],[0],[0],[2.793337599840015],['target'],,,,T4,001,2024-10-08_13h09.40.213,untitled,2024.1.5,None,2024-10-08 13h09.56.057675 +0530,
164,0,164,0,341.1787382001057,,,,,,,,,,,,,341.15057600010186,5,0.017890399787575006,341.1787382001057,341.1787382001057,343.0121157001704,[0.09375],[-0.049479166666666664],[1],[0],[0],[1.8595122997649014],['target'],,,,T4,001,2024-10-08_13h09.40.213,untitled,2024.1.5,None,2024-10-08 13h09.56.057675 +0530,
165,0,165,0,343.0418426999822,,,,,,,,,,,,,343.016975000035,5,0.01748549984768033,343.0418426999822,343.0418426999822,345.1772631001659,[-0.032552083333333336],[0.30859375],[1],[0],[0],[2.159648099914193],['target'],,,,T4,001,2024-10-08_13h09.40.213,untitled,2024.1.5,None,2024-10-08 13h09.56.057675 +0530,
166,0,166,0,345.2513173003681,,,,,,,,,,,,,345.1825582999736,10,0.05117780016735196,345.2513173003681,345.2513173003681,348.40577000007033,[0.14322916666666666],[0.4622395833333333],[1],[0],[0],[3.2227811999619007],['target'],,,,T4,001,2024-10-08_13h09.40.213,untitled,2024.1.5,None,2024-10-08 13h09.56.057675 +0530,
167,0,167,0,348.45452459994704,,,,,,,,,,,,,348.4094788003713,10,0.03261320013552904,348.45452459994704,348.45452459994704,349.82263580011204,[0.2552083333333333],[0.4557291666666667],[1],[0],[0],[1.4124592998996377],['target'],,,,T4,001,2024-10-08_13h09.40.213,untitled,2024.1.5,None,2024-10-08 13h09.56.057675 +0530,
168,0,168,0,349.8565567000769,,,,,,,,,,,,,349.8278483003378,5,0.01987170008942485,349.8565567000769,349.8565567000769,351.3571260999888,[-0.08333333333333333],[0.13411458333333334],[1],[0],[0],[1.528657800052315],['target'],,,,T4,001,2024-10-08_13h09.40.213,untitled,2024.1.5,None,2024-10-08 13h09.56.057675 +0530,
169,0,169,0,351.42713270010427,,,,,,,,,,,,,351.362354000099,10,0.04833809984847903,351.42713270010427,351.42713270010427,353.51803110027686,[-0.14192708333333334],[-0.3033854166666667],[1],[0],[0],[2.1551115000620484],['target'],,,,T4,001,2024-10-08_13h09.40.213,untitled,2024.1.5,None,2024-10-08 13h09.56.057675 +0530,
170,0,170,0,353.56990570016205,,,,,,,,,,,,,353.5226545999758,10,0.03355489997193217,353.56990570016205,353.56990570016205,354.94993430003524,[0.171875],[-0.3190104166666667],[1],[0],[0],[1.4267267999239266],['target'],,,,T4,001,2024-10-08_13h09.40.213,untitled,2024.1.5,None,2024-10-08 13h09.56.057675 +0530,
171,0,171,0,354.98085050005466,,,,,,,,,,,,,354.95441520027816,5,0.018366700038313866,354.98085050005466,354.98085050005466,357.1634564003907,[0.16666666666666666],[0.484375],[1],[0],[0],[2.2085448000580072],['target'],,,,T4,001,2024-10-08_13h09.40.213,untitled,2024.1.5,None,2024-10-08 13h09.56.057675 +0530,
172,0,172,0,357.19424830004573,,,,,,,,,,,,,357.1675158003345,5,0.01753820013254881,357.19424830004573,357.19424830004573,358.49782630009577,[-0.07682291666666667],[0.40625],[1],[0],[0],[1.3288175002671778],['target'],,,,T4,001,2024-10-08_13h09.40.213,untitled,2024.1.5,None,2024-10-08 13h09.56.057675 +0530,
173,0,173,0,358.56734020030126,,,,,,,,,,,,,358.50645570037887,10,0.04067149991169572,358.56734020030126,358.56734020030126,360.86033460032195,[0.057291666666666664],[-0.4036458333333333],[1],[0],[0],[2.353319499641657],['target'],,,,T4,001,2024-10-08_13h09.40.213,untitled,2024.1.5,None,2024-10-08 13h09.56.057675 +0530,
174,0,174,0,360.89236900024116,,,,,,,,,,,,,360.8633925002068,5,0.017086000181734562,360.89236900024116,360.89236900024116,362.5255695004016,[-0.09114583333333333],[-0.1484375],[1],[0],[0],[1.6617140998132527],['target'],,,,T4,001,2024-10-08_13h09.40.213,untitled,2024.1.5,None,2024-10-08 13h09.56.057675 +0530,
175,0,175,0,362.57475859997794,,,,,,,,,,,,,362.5296372999437,10,0.032782199792563915,362.57475859997794,362.57475859997794,366.4041925002821,[-0.4427083333333333],[0.4765625],[1],[0],[0],[3.8740639998577535],[],,,,T4,001,2024-10-08_13h09.40.213,untitled,2024.1.5,None,2024-10-08 13h09.56.057675 +0530,
176,0,176,0,366.4541747001931,,,,,,,,,,,,,366.40837200032547,10,0.0332825998775661,366.4541747001931,366.4541747001931,368.369449400343,[0.1640625],[0.12890625],[1],[0],[0],[1.960550899617374],['target'],,,,T4,001,2024-10-08_13h09.40.213,untitled,2024.1.5,None,2024-10-08 13h09.56.057675 +0530,
177,0,177,0,368.434199700132,,,,,,,,,,,,,368.3742021000944,10,0.04003800032660365,368.434199700132,368.434199700132,370.3345968001522,[-0.4466145833333333],[0.30859375],[1],[0],[0],[1.9599076001904905],['target'],,,,T4,001,2024-10-08_13h09.40.213,untitled,2024.1.5,None,2024-10-08 13h09.56.057675 +0530,
178,0,178,0,370.36225640028715,,,,,,,,,,,,,370.33785140002146,5,0.0166553002782166,370.36225640028715,370.36225640028715,371.8830703999847,[-0.4817708333333333],[-0.12760416666666666],[1],[0],[0],[1.5445623002015054],['target'],,,,T4,001,2024-10-08_13h09.40.213,untitled,2024.1.5,None,2024-10-08 13h09.56.057675 +0530,
179,0,179,0,371.92045770026743,,,,,,,,,,,,,371.88617900013924,5,0.02016660012304783,371.92045770026743,371.92045770026743,377.64353330014274,[-0.4986979166666667],[-0.22526041666666666],[1],[0],[0],[5.756864099763334],['target'],,,,T4,001,2024-10-08_13h09.40.213,untitled,2024.1.5,None,2024-10-08 13h09.56.057675 +0530,
180,0,180,0,377.6726387999952,,,,,,,,,,,,,377.6470725000836,5,0.017017100006341934,377.6726387999952,377.6726387999952,379.042775799986,[-0.3828125],[-0.20963541666666666],[1],[0],[0],[1.3952696002088487],['target'],,,,T4,001,2024-10-08_13h09.40.213,untitled,2024.1.5,None,2024-10-08 13h09.56.057675 +0530,
181,0,181,0,379.0715566002764,,,,,,,,,,,,,379.04592410009354,5,0.01725540030747652,379.0715566002764,379.0715566002764,380.70680289994925,[-0.016927083333333332],[0.484375],[1],[0],[0],[1.6604317999444902],['target'],,,,T4,001,2024-10-08_13h09.40.213,untitled,2024.1.5,None,2024-10-08 13h09.56.057675 +0530,
182,0,182,0,380.7550424002111,,,,,,,,,,,,,380.7105161002837,10,0.03280959976837039,380.7550424002111,380.7550424002111,382.7553410003893,[0.18229166666666666],[-0.16536458333333334],[1],[0],[0],[2.0444171000272036],['target'],,,,T4,001,2024-10-08_13h09.40.213,untitled,2024.1.5,None,2024-10-08 13h09.56.057675 +0530,
183,0,183,0,382.7853553001769,,,,,,,,,,,,,382.7589439000003,5,0.01798289967700839,382.7853553001769,382.7853553001769,384.13753060018644,[0.19401041666666666],[-0.21484375],[1],[0],[0],[1.3781726001761854],['target'],,,,T4,001,2024-10-08_13h09.40.213,untitled,2024.1.5,None,2024-10-08 13h09.56.057675 +0530,
184,0,184,0,384.18509300006554,,,,,,,,,,,,,384.14082240033895,10,0.03172349976375699,384.18509300006554,384.18509300006554,386.6027109003626,[-0.4596354166666667],[0.48828125],[1],[0],[0],[2.461359300184995],['target'],,,,T4,001,2024-10-08_13h09.40.213,untitled,2024.1.5,None,2024-10-08 13h09.56.057675 +0530,
185,0,185,0,386.6373026999645,,,,,,,,,,,,,386.6076879003085,5,0.018505000043660402,386.6373026999645,386.6373026999645,388.59977950016037,[0.42578125],[-0.42578125],[1],[0],[0],[1.9915277999825776],['target'],,,,T4,001,2024-10-08_13h09.40.213,untitled,2024.1.5,None,2024-10-08 13h09.56.057675 +0530,
186,0,186,0,388.62863320019096,,,,,,,,,,,,,388.60312490025535,5,0.017389100044965744,388.62863320019096,388.62863320019096,390.5477838004008,[-0.4739583333333333],[0.27734375],[1],[0],[0],[1.9441879000514746],['target'],,,,T4,001,2024-10-08_13h09.40.213,untitled,2024.1.5,None,2024-10-08 13h09.56.057675 +0530,
187,0,187,0,390.5949667999521,,,,,,,,,,,,,390.550876500085,10,0.03144240006804466,390.5949667999521,390.5949667999521,392.46202620025724,[-0.31640625],[-0.3502604166666667],[1],[0],[0],[1.9106828002259135],['target'],,,,T4,001,2024-10-08_13h09.40.213,untitled,2024.1.5,None,2024-10-08 13h09.56.057675 +0530,
188,0,188,0,392.49032999994233,,,,,,,,,,,,,392.4651240003295,5,0.01690319972112775,392.49032999994233,392.49032999994233,394.4110575001687,[0.34765625],[-0.0013020833333333333],[1],[0],[0],[1.9454584000632167],['target'],,,,T4,001,2024-10-08_13h09.40.213,untitled,2024.1.5,None,2024-10-08 13h09.56.057675 +0530,
189,0,189,0,394.45906710019335,,,,,,,,,,,,,394.41422539995983,10,0.03196700010448694,394.45906710019335,394.45906710019335,395.90857900027186,[0.33984375],[0.16276041666666666],[1],[0],[0],[1.493846499826759],['target'],,,,T4,001,2024-10-08_13h09.40.213,untitled,2024.1.5,None,2024-10-08 13h09.56.057675 +0530,
190,0,190,0,395.96146719995886,,,,,,,,,,,,,395.9118207003921,10,0.03531820001080632,395.96146719995886,395.96146719995886,397.7442628000863,[-0.2630208333333333],[-0.055989583333333336],[1],[0],[0],[1.8318983996286988],['target'],,,,T4,001,2024-10-08_13h09.40.213,untitled,2024.1.5,None,2024-10-08 13h09.56.057675 +0530,
191,0,191,0,397.7733757002279,,,,,,,,,,,,,397.7487807003781,5,0.016843500081449747,397.7733757002279,397.7733757002279,400.0560516002588,[0.2734375],[0.4869791666666667],[1],[0],[0],[2.306550099980086],['target'],,,,T4,001,2024-10-08_13h09.40.213,untitled,2024.1.5,None,2024-10-08 13h09.56.057675 +0530,
192,0,192,0,400.097770600114,,,,,,,,,,,,,400.06147349998355,5,0.020653600338846445,400.097770600114,400.097770600114,402.01951310038567,[-0.3841145833333333],[-0.4127604166666667],[1],[0],[0],[1.9575101002119482],['target'],,,,T4,001,2024-10-08_13h09.40.213,untitled,2024.1.5,None,2024-10-08 13h09.56.057675 +0530,
193,0,193,0,402.07041880022734,,,,,,,,,,,,,402.02368550002575,10,0.033977499697357416,402.07041880022734,402.07041880022734,403.7181395003572,[0.06380208333333333],[0.10286458333333333],[1],[0],[0],[1.6939893998205662],['target'],,,,T4,001,2024-10-08_13h09.40.213,untitled,2024.1.5,None,2024-10-08 13h09.56.057675 +0530,
194,0,194,0,403.76500480016693,,,,,,,,,,,,,403.7212173002772,10,0.031751399859786034,403.76500480016693,403.76500480016693,405.21627240022644,[0.13932291666666666],[0.2552083333333333],[1],[0],[0],[1.494619400240481],['target'],,,,T4,001,2024-10-08_13h09.40.213,untitled,2024.1.5,None,2024-10-08 13h09.56.057675 +0530,
195,0,195,0,405.27386770024896,,,,,,,,,,,,,405.21976020000875,10,0.03869280032813549,405.27386770024896,405.27386770024896,406.93181860027835,[0.4895833333333333],[-0.08984375],[1],[0],[0],[1.7116244998760521],['target'],,,,T4,001,2024-10-08_13h09.40.213,untitled,2024.1.5,None,2024-10-08 13h09.56.057675 +0530,
196,0,196,0,406.9605847001076,,,,,,,,,,,,,406.9348802003078,5,0.016792500391602516,406.9605847001076,406.9605847001076,408.5314466999844,[-0.045572916666666664],[-0.0703125],[1],[0],[0],[1.5958899999968708],['target'],,,,T4,001,2024-10-08_13h09.40.213,untitled,2024.1.5,None,2024-10-08 13h09.56.057675 +0530,
197,0,197,0,408.5838200999424,,,,,,,,,,,,,408.5369754000567,10,0.03464630013331771,408.5838200999424,408.5838200999424,409.73277210025117,[-0.3333333333333333],[-0.037760416666666664],[1],[0],[0],[1.19511660002172],['target'],,,,T4,001,2024-10-08_13h09.40.213,untitled,2024.1.5,None,2024-10-08 13h09.56.057675 +0530,
198,0,198,0,409.805097500328,,,,,,,,,,,,,409.73953030025586,10,0.051989400293678045,409.805097500328,409.805097500328,410.9948172001168,[-0.28125],[-0.14192708333333334],[1],[0],[0],[1.2547428002581],['target'],,,,T4,001,2024-10-08_13h09.40.213,untitled,2024.1.5,None,2024-10-08 13h09.56.057675 +0530,
199,0,199,0,411.02467520022765,,,,,,,,,,,,,410.9989671004005,5,0.017333699855953455,411.02467520022765,411.02467520022765,412.6434110002592,[0.30078125],[-0.3932291666666667],[1],[0],[0],[1.6439196998253465],['target'],,,,T4,001,2024-10-08_13h09.40.213,untitled,2024.1.5,None,2024-10-08 13h09.56.057675 +0530,
,,,,,,,,,,,,,,,,,,,,,,,,,,,,,,412.6469789003022,412.6578722000122,416.6549841002561,T4,001,2024-10-08_13h09.40.213,untitled,2024.1.5,None,2024-10-08 13h09.56.057675 +0530,
