delay,freq,condition,trials.thisRepN,trials.thisTrialN,trials.thisN,trials.thisIndex,thisRow.t,notes,guidelines.started,text.started,key_resp_2.started,guidelines.stopped,key_resp_2.keys,key_resp_2.rt,key_resp_2.duration,trial.started,polygon.started,polygon_2.started,key_resp.started,polygon.stopped,trial.stopped,key_resp.keys,key_resp.rt,key_resp.duration,beep.started,sound_1.started,sound_1.stopped,beep.stopped,response.started,display_text.started,textbox.started,button.started,response.stopped,textbox.text,button.numClicks,button.timesOn,button.timesOff,thanks.started,text_2.started,text_2.stopped,thanks.stopped,participant,session,date,expName,psychopyVersion,frameRate,expStart,
,,,,,,,,,0.004176299960818142,0.023984999977983534,0.023984999977983534,16.91488609998487,space,16.882616300019436,None,,,,,,,,,,,,,,,,,,,,,,,,,,,01N,001,2024-11-11_22h15.18.938,INTENTIONAL_BINDING_TASK_NUTAN_KAIN_AU2220019,2024.1.5,None,2024-11-11 22h15.34.520609 +0530,
0.7,1000,exp,0,0,0,5,16.972061700013,,,,,,,,,16.928815499995835,16.972061700013,17.92413309996482,17.92413309996482,17.973856800002977,18.656619699962903,space,0.720792900014203,None,18.65836619999027,19.37227146665488,19.70604339998681,19.67218439996941,19.672252499964088,19.70604339998681,19.70604339998681,19.70604339998681,23.019030799972825,500,1,[3.324163099983707],[3.3241717999917455],,,,,01N,001,2024-11-11_22h15.18.938,INTENTIONAL_BINDING_TASK_NUTAN_KAIN_AU2220019,2024.1.5,None,2024-11-11 22h15.34.520609 +0530,
0.1,1000,exp,0,1,1,3,23.033832099987194,,,,,,,,,23.02052029996412,23.033832099987194,24.034021999977995,24.034021999977995,24.034021999977995,24.48619470000267,space,0.4460045999730937,None,24.487257300002966,24.601021766666477,24.911979699973017,24.89165609999327,24.8917074999772,24.911979699973017,24.911979699973017,24.911979699973017,27.431040600000415,600,1,[2.536954600014724],[2.5369636000250466],,,,,01N,001,2024-11-11_22h15.18.938,INTENTIONAL_BINDING_TASK_NUTAN_KAIN_AU2220019,2024.1.5,None,2024-11-11 22h15.34.520609 +0530,
0.1,1000,exp,0,2,2,6,27.447012799966615,,,,,,,,,27.43218910001451,27.447012799966615,28.447162299999036,28.447162299999036,28.447162299999036,28.764819699979853,space,0.30601550004212186,None,28.76618649996817,28.8804841666754,29.19047709996812,29.17165279999608,29.171702299965546,29.19047709996812,29.19047709996812,29.19047709996812,31.87852109997766,300,1,[2.7043718000059016],[2.7043826999724843],,,,,01N,001,2024-11-11_22h15.18.938,INTENTIONAL_BINDING_TASK_NUTAN_KAIN_AU2220019,2024.1.5,None,2024-11-11 22h15.34.520609 +0530,
0.4,1000,exp,0,3,3,7,31.89226489997236,,,,,,,,,31.87963470001705,31.89226489997236,32.89262379996944,32.89262379996944,32.89262379996944,33.27740729996003,space,0.3722944000037387,None,33.278315700008534,33.69031726668278,,33.96711149998009,33.96719309996115,33.99017730000196,33.99017730000196,33.99017730000196,36.241243799973745,300,1,[2.2713345999945886],[2.2713503999984823],,,,,01N,001,2024-11-11_22h15.18.938,INTENTIONAL_BINDING_TASK_NUTAN_KAIN_AU2220019,2024.1.5,None,2024-11-11 22h15.34.520609 +0530,
0.7,1000,exp,0,4,4,11,36.255085700016934,,,,,,,,,36.24275929998839,36.255085700016934,37.25490689999424,37.25490689999424,37.25490689999424,37.722580200002994,space,0.45196799997938797,None,37.723384799959604,38.4369149666784,38.75564960000338,38.73192549997475,38.73215140000684,38.75564960000338,38.75564960000338,38.75564960000338,44.16533609997714,700,1,[5.430878799990751],[5.430888400005642],,,,,01N,001,2024-11-11_22h15.18.938,INTENTIONAL_BINDING_TASK_NUTAN_KAIN_AU2220019,2024.1.5,None,2024-11-11 22h15.34.520609 +0530,
0.7,400,unexp,0,5,5,2,44.180314900004305,,,,,,,,,44.16615000000456,44.180314900004305,45.18004110001493,45.18004110001493,45.18004110001493,45.597922099987045,space,0.4016031000064686,None,45.59869800001616,46.313404366668934,46.63346509996336,46.61218820000067,46.61225209996337,46.63346509996336,46.63346509996336,46.63346509996336,49.47710789996199,400,1,[2.8624060999718495],[2.862414599978365],,,,,01N,001,2024-11-11_22h15.18.938,INTENTIONAL_BINDING_TASK_NUTAN_KAIN_AU2220019,2024.1.5,None,2024-11-11 22h15.34.520609 +0530,
0.4,1000,exp,0,6,6,10,49.49132540001301,,,,,,,,,49.478079099964816,49.49132540001301,50.49182950000977,50.49182950000977,50.49182950000977,52.69198309996864,space,2.1983620999963023,None,52.69280650001019,53.106521766636675,53.42591019999236,53.40276289999019,53.402834700013045,53.42591019999236,53.42591019999236,53.42591019999236,56.17044119996717,300,1,[2.7643849999876693],[2.7643945000017993],,,,,01N,001,2024-11-11_22h15.18.938,INTENTIONAL_BINDING_TASK_NUTAN_KAIN_AU2220019,2024.1.5,None,2024-11-11 22h15.34.520609 +0530,
0.1,1000,exp,0,7,7,9,56.18486859998666,,,,,,,,,56.17133549996652,56.18486859998666,57.18551609996939,57.18551609996939,57.18551609996939,57.503946500015445,space,0.31594540004152805,None,57.505064599972684,57.61831666663444,57.93600350001361,57.91146959998878,57.91152379999403,57.93600350001361,57.93600350001361,57.93600350001361,59.96636690001469,300,1,[2.051934900053311],[2.051944300008472],,,,,01N,001,2024-11-11_22h15.18.938,INTENTIONAL_BINDING_TASK_NUTAN_KAIN_AU2220019,2024.1.5,None,2024-11-11 22h15.34.520609 +0530,
0.7,1000,exp,0,8,8,8,59.98112119996222,,,,,,,,,59.96728649997385,59.98112119996222,60.981625799962785,60.981625799962785,60.981625799962785,61.24917019996792,space,0.2595020000007935,None,61.24997579999035,61.96403406665583,62.28586840000935,62.26303089997964,62.26310460001696,62.28586840000935,62.28586840000935,62.28586840000935,64.27949829999125,300,1,[2.0137359999935143],[2.01374849997228],,,,,01N,001,2024-11-11_22h15.18.938,INTENTIONAL_BINDING_TASK_NUTAN_KAIN_AU2220019,2024.1.5,None,2024-11-11 22h15.34.520609 +0530,
0.1,400,unexp,0,9,9,0,64.29424499999732,,,,,,,,,64.28069749998394,64.29424499999732,65.29445310001029,65.29445310001029,65.29445310001029,66.01280450000195,space,0.7121885999804363,None,66.01397560001351,66.12700216664622,66.44286609999835,66.42197289998876,66.42204340000171,66.44286609999835,66.44286609999835,66.44286609999835,68.84192729997449,200,1,[2.4174380999756977],[2.4174677999690175],,,,,01N,001,2024-11-11_22h15.18.938,INTENTIONAL_BINDING_TASK_NUTAN_KAIN_AU2220019,2024.1.5,None,2024-11-11 22h15.34.520609 +0530,
0.4,400,unexp,0,10,10,1,68.855900799972,,,,,,,,,68.84302859997842,68.855900799972,69.85620209999615,69.85620209999615,69.85620209999615,70.75745319999987,space,0.895038399961777,None,70.758533300017,71.17153556662767,71.48475419997703,71.46245729998918,71.46250829997007,71.48475419997703,71.48475419997703,71.48475419997703,74.76874199998565,500,1,[3.30405370000517],[3.3040889999829233],,,,,01N,001,2024-11-11_22h15.18.938,INTENTIONAL_BINDING_TASK_NUTAN_KAIN_AU2220019,2024.1.5,None,2024-11-11 22h15.34.520609 +0530,
0.4,1000,exp,0,11,11,4,74.78339519997826,,,,,,,,,74.76968620001571,74.78339519997826,75.78364959999453,75.78364959999453,75.78364959999453,76.85038079996593,space,1.052996099984739,None,76.85116299998481,77.26545356662633,77.58699599996908,77.56242759997258,77.56249749998096,77.58699599996908,77.58699599996908,77.58699599996908,80.19624019996263,500,1,[2.6305466999765486],[2.6305550999823026],,,,,01N,001,2024-11-11_22h15.18.938,INTENTIONAL_BINDING_TASK_NUTAN_KAIN_AU2220019,2024.1.5,None,2024-11-11 22h15.34.520609 +0530,
0.1,1000,exp,1,0,12,3,80.21097289997851,,,,,,,,,80.19706879998557,80.21097289997851,81.19474239996634,81.19474239996634,81.21216579998145,81.96373299998231,space,0.766486199980136,None,81.9649774999707,82.07840636663992,82.3966672999668,82.37139699998079,82.37144439999247,82.3966672999668,82.3966672999668,82.3966672999668,86.60667559999274,300,1,[4.231938300014008],[4.231946800020523],,,,,01N,001,2024-11-11_22h15.18.938,INTENTIONAL_BINDING_TASK_NUTAN_KAIN_AU2220019,2024.1.5,None,2024-11-11 22h15.34.520609 +0530,
0.1,1000,exp,1,1,13,6,86.62177189998329,,,,,,,,,86.60757359996205,86.62177189998329,87.62196630000835,87.62196630000835,87.62196630000835,88.65763939998578,space,1.0338118999497965,None,88.6586735000019,88.7718959666711,89.09438909997698,89.07253840001067,89.0725884999847,89.09438909997698,89.09438909997698,89.09438909997698,91.535261299985,200,1,[2.460303300002124],[2.460316300042905],,,,,01N,001,2024-11-11_22h15.18.938,INTENTIONAL_BINDING_TASK_NUTAN_KAIN_AU2220019,2024.1.5,None,2024-11-11 22h15.34.520609 +0530,
0.7,1000,exp,1,2,14,5,91.55063730000984,,,,,,,,,91.53672219999135,91.55063730000984,92.55062559997896,92.55062559997896,92.55062559997896,93.00093199999537,space,0.43581960001029074,None,93.00178890000097,93.71688496665253,94.03448649996426,94.01281099999323,94.01287709997268,94.03448649996426,94.03448649996426,94.03448649996426,95.76429789996473,300,1,[1.7475792999612167],[1.7475964999757707],,,,,01N,001,2024-11-11_22h15.18.938,INTENTIONAL_BINDING_TASK_NUTAN_KAIN_AU2220019,2024.1.5,None,2024-11-11 22h15.34.520609 +0530,
0.4,1000,exp,1,3,15,7,95.77942969999276,,,,,,,,,95.76592959999107,95.77942969999276,96.78024709998863,96.78024709998863,96.78024709998863,97.09769199998118,space,0.3051368999877013,None,97.09857139998348,97.51272846665621,97.83407450001687,97.81246360001387,97.81255719996989,97.83407450001687,97.83407450001687,97.83407450001687,100.25977659999626,300,1,[2.4449393000104465],[2.4449475000146776],,,,,01N,001,2024-11-11_22h15.18.938,INTENTIONAL_BINDING_TASK_NUTAN_KAIN_AU2220019,2024.1.5,None,2024-11-11 22h15.34.520609 +0530,
0.4,400,unexp,1,4,16,1,100.27458279998973,,,,,,,,,100.26058050000574,100.27458279998973,101.27492429997073,101.27492429997073,101.27492429997073,101.82493249996332,space,0.5342991999932565,None,101.82604010001523,102.24108696665304,102.55809890001547,102.5421852999716,102.54223429999547,102.55809890001547,102.55809890001547,102.55809890001547,104.9062036999967,300,1,[2.3620049000019208],[2.3620221000164747],,,,,01N,001,2024-11-11_22h15.18.938,INTENTIONAL_BINDING_TASK_NUTAN_KAIN_AU2220019,2024.1.5,None,2024-11-11 22h15.34.520609 +0530,
0.4,1000,exp,1,5,17,10,104.92116319999332,,,,,,,,,104.90721209999174,104.92116319999332,105.92101439996623,105.92101439996623,105.92101439996623,106.2561053999816,space,0.3299838000093587,None,106.2571700999979,106.6700933666473,106.9824378999765,106.96213090000674,106.96218719996978,106.9824378999765,106.9824378999765,106.9824378999765,108.81787169998279,500,1,[1.8534778999746777],[1.8534873999888077],,,,,01N,001,2024-11-11_22h15.18.938,INTENTIONAL_BINDING_TASK_NUTAN_KAIN_AU2220019,2024.1.5,None,2024-11-11 22h15.34.520609 +0530,
0.4,1000,exp,1,6,18,4,108.8334451999981,,,,,,,,,108.81894349999493,108.8334451999981,109.83387149998453,109.83387149998453,109.83387149998453,110.13532259996282,space,0.2956191999837756,None,110.13660039997194,110.55022006662718,110.8668557999772,110.84180719999131,110.84187080000993,110.8668557999772,110.8668557999772,110.8668557999772,112.93071909999708,400,1,[2.0861918999580666],[2.086202599981334],,,,,01N,001,2024-11-11_22h15.18.938,INTENTIONAL_BINDING_TASK_NUTAN_KAIN_AU2220019,2024.1.5,None,2024-11-11 22h15.34.520609 +0530,
0.1,1000,exp,1,7,19,9,112.94594939996023,,,,,,,,,112.93195200001355,112.94594939996023,113.94627059996128,113.94627059996128,113.94627059996128,116.18050620000577,space,2.231726299971342,None,116.18164630001411,116.29369736666946,116.61355790001107,116.59174579998944,116.59182329999749,116.61355790001107,116.61355790001107,116.61355790001107,118.275361899985,400,1,[1.6806073000188917],[1.6806183999869972],,,,,01N,001,2024-11-11_22h15.18.938,INTENTIONAL_BINDING_TASK_NUTAN_KAIN_AU2220019,2024.1.5,None,2024-11-11 22h15.34.520609 +0530,
0.7,400,unexp,1,8,20,2,118.29126199998427,,,,,,,,,118.27651799999876,118.29126199998427,119.29091360000893,119.29091360000893,119.29091360000893,119.57612159999553,space,0.2737030999851413,None,119.5770112000173,120.28979626665047,120.60210540000116,120.58223569998518,120.58229399996344,120.60210540000116,120.60210540000116,120.60210540000116,121.9720722999773,300,1,[1.387496099981945],[1.3875077000120655],,,,,01N,001,2024-11-11_22h15.18.938,INTENTIONAL_BINDING_TASK_NUTAN_KAIN_AU2220019,2024.1.5,None,2024-11-11 22h15.34.520609 +0530,
0.7,1000,exp,1,9,21,11,121.98743239999749,,,,,,,,,121.97323389997473,121.98743239999749,122.98734649998369,122.98734649998369,122.98734649998369,123.25635589996818,space,0.2628300000214949,None,123.25747439998668,123.97026516666325,124.28300719999243,124.26180370000657,124.26185479998821,124.28300719999243,124.28300719999243,124.28300719999243,125.90115260001039,300,1,[1.6370069999829866],[1.637019599962514],,,,,01N,001,2024-11-11_22h15.18.938,INTENTIONAL_BINDING_TASK_NUTAN_KAIN_AU2220019,2024.1.5,None,2024-11-11 22h15.34.520609 +0530,
0.1,400,unexp,1,10,22,0,125.916832399962,,,,,,,,,125.90229709999403,125.916832399962,126.91729489999125,126.91729489999125,126.91729489999125,127.50254650000716,space,0.5816076999763027,None,127.50372509995941,127.6163760666425,127.93215299997246,127.91150569997262,127.9115662999684,127.93215299997246,127.93215299997246,127.93215299997246,129.89673719997518,500,1,[1.98307959997328],[1.983088199980557],,,,,01N,001,2024-11-11_22h15.18.938,INTENTIONAL_BINDING_TASK_NUTAN_KAIN_AU2220019,2024.1.5,None,2024-11-11 22h15.34.520609 +0530,
0.7,1000,exp,1,11,23,8,129.91236479999498,,,,,,,,,129.8975546999718,129.91236479999498,130.91261379997013,130.91261379997013,130.91261379997013,131.28134380001575,space,0.36048250005114824,None,131.28224879998015,131.99532096664578,132.3139803999802,132.29174869996496,132.29182599997148,132.3139803999802,132.3139803999802,132.3139803999802,133.97751429997152,300,1,[1.6820946999941953],[1.682109399989713],,,,,01N,001,2024-11-11_22h15.18.938,INTENTIONAL_BINDING_TASK_NUTAN_KAIN_AU2220019,2024.1.5,None,2024-11-11 22h15.34.520609 +0530,
0.4,1000,exp,2,0,24,10,133.9925321000046,,,,,,,,,133.97871599998325,133.9925321000046,134.9925184000167,134.9925184000167,134.9925184000167,135.62670490000164,space,0.6243970000068657,None,135.62767199997324,136.04125666665303,136.3531181999715,136.33305819996167,136.33310980000533,136.3531181999715,136.3531181999715,136.3531181999715,138.73867469996912,300,1,[2.403309100016486],[2.4033196000382304],,,,,01N,001,2024-11-11_22h15.18.938,INTENTIONAL_BINDING_TASK_NUTAN_KAIN_AU2220019,2024.1.5,None,2024-11-11 22h15.34.520609 +0530,
0.4,1000,exp,2,1,25,4,138.75404899998102,,,,,,,,,138.73990749998484,138.75404899998102,139.75419740000507,139.75419740000507,139.75419740000507,140.4729508999735,space,0.7131993999937549,None,140.4741586999735,140.88722696667926,141.20712510001613,141.1877455000067,141.1877964999876,141.20712510001613,141.20712510001613,141.20712510001613,143.40062949998537,500,1,[2.2105318999965675],[2.210541700012982],,,,,01N,001,2024-11-11_22h15.18.938,INTENTIONAL_BINDING_TASK_NUTAN_KAIN_AU2220019,2024.1.5,None,2024-11-11 22h15.34.520609 +0530,
0.1,1000,exp,2,2,26,6,143.4167198999785,,,,,,,,,143.4018272999674,143.4167198999785,144.4158947999822,144.4158947999822,144.4158947999822,144.53559639997547,space,0.11355119996005669,None,144.5365812999662,144.64975926664582,144.96767340000952,144.94426949997433,144.9443420000025,144.96767340000952,144.96767340000952,144.96767340000952,147.363650699961,500,1,[2.4166944000171497],[2.416702800022904],,,,,01N,001,2024-11-11_22h15.18.938,INTENTIONAL_BINDING_TASK_NUTAN_KAIN_AU2220019,2024.1.5,None,2024-11-11 22h15.34.520609 +0530,
0.4,400,unexp,2,3,27,1,147.3788107999717,,,,,,,,,147.36457269999664,147.3788107999717,148.37896359997103,148.37896359997103,148.37896359997103,148.76371959998505,space,0.369012399984058,None,148.76471809996292,149.1790683666516,149.4951602999936,149.47133590001613,149.47139409999363,149.4951602999936,149.4951602999936,149.4951602999936,151.75990840001032,700,1,[2.286200699978508],[2.2862108999979682],,,,,01N,001,2024-11-11_22h15.18.938,INTENTIONAL_BINDING_TASK_NUTAN_KAIN_AU2220019,2024.1.5,None,2024-11-11 22h15.34.520609 +0530,
0.1,400,unexp,2,4,28,0,151.77459909999743,,,,,,,,,151.76095929997973,151.77459909999743,152.7745785000152,152.7745785000152,152.7745785000152,153.30961279995972,space,0.5325177000486292,None,153.31070380000165,153.424129266645,153.7426971999812,153.72250919998623,153.72258289996535,153.7426971999812,153.7426971999812,153.7426971999812,156.27084439998725,700,1,[2.5457473000278696],[2.545757199986838],,,,,01N,001,2024-11-11_22h15.18.938,INTENTIONAL_BINDING_TASK_NUTAN_KAIN_AU2220019,2024.1.5,None,2024-11-11 22h15.34.520609 +0530,
0.1,1000,exp,2,5,29,9,156.2873050000053,,,,,,,,,156.27200639998773,156.2873050000053,157.28742599999532,157.28742599999532,157.28742599999532,157.80549359996803,space,0.5027929999632761,None,157.80652380001266,157.9201821666832,158.23309759999393,158.21141129999887,158.21146309998585,158.23309759999393,158.23309759999393,158.23309759999393,164.01400749996537,500,1,[5.800281599978916],[5.800290799990762],,,,,01N,001,2024-11-11_22h15.18.938,INTENTIONAL_BINDING_TASK_NUTAN_KAIN_AU2220019,2024.1.5,None,2024-11-11 22h15.34.520609 +0530,
0.7,1000,exp,2,6,30,5,164.02904449997004,,,,,,,,,164.0148495999747,164.02904449997004,165.02951999998186,165.02951999998186,165.02951999998186,165.34851799998432,space,0.31270109995966777,None,165.34958509996068,166.0618433666571,166.38425599999027,166.36168299999554,166.36174159997609,166.38425599999027,166.38425599999027,166.38425599999027,168.22564099996816,300,1,[1.8615221999934874],[1.861529599991627],,,,,01N,001,2024-11-11_22h15.18.938,INTENTIONAL_BINDING_TASK_NUTAN_KAIN_AU2220019,2024.1.5,None,2024-11-11 22h15.34.520609 +0530,
0.7,1000,exp,2,7,31,11,168.24166499997955,,,,,,,,,168.22650900000008,168.24166499997955,169.22480789996916,169.22480789996916,169.2419721999904,170.19385989999864,space,0.9657010000082664,None,170.19482599996263,170.90731726662878,171.22252599999774,171.20136659999844,171.2014181999839,171.22252599999774,171.22252599999774,171.22252599999774,174.45498129999032,400,1,[3.250589700008277],[3.2506014000391588],,,,,01N,001,2024-11-11_22h15.18.938,INTENTIONAL_BINDING_TASK_NUTAN_KAIN_AU2220019,2024.1.5,None,2024-11-11 22h15.34.520609 +0530,
0.7,400,unexp,2,8,32,2,174.46891579998191,,,,,,,,,174.4562415999826,174.46891579998191,175.46916789998068,175.46916789998068,175.46916789998068,176.20410769997397,space,0.7260839000227861,None,176.20545889995992,176.91785656667005,177.2338391999947,177.21127530001104,177.21132469997974,177.2338391999947,177.2338391999947,177.2338391999947,179.21708159998525,700,1,[2.0026495999773033],[2.0026650999789126],,,,,01N,001,2024-11-11_22h15.18.938,INTENTIONAL_BINDING_TASK_NUTAN_KAIN_AU2220019,2024.1.5,None,2024-11-11 22h15.34.520609 +0530,
0.7,1000,exp,2,9,33,8,179.2315452999901,,,,,,,,,179.21885499998461,179.2315452999901,180.23108699999284,180.23108699999284,180.23108699999284,180.81638589996146,space,0.5773239999543875,None,180.81757939996896,181.53067316668265,181.84192839998286,181.82132990000537,181.82139260001713,181.84192839998286,181.84192839998286,181.84192839998286,184.52760649996344,400,1,[2.7036860999651253],[2.7037006999598816],,,,,01N,001,2024-11-11_22h15.18.938,INTENTIONAL_BINDING_TASK_NUTAN_KAIN_AU2220019,2024.1.5,None,2024-11-11 22h15.34.520609 +0530,
0.4,1000,exp,2,10,34,7,184.543240399973,,,,,,,,,184.52931050001644,184.543240399973,185.54282859998057,185.54282859998057,185.54282859998057,186.5110762999975,space,0.9626520000165328,None,186.5122313000029,186.92497546662733,187.24527249997482,187.22408349998295,187.22414309997112,187.24527249997482,187.24527249997482,187.24527249997482,189.58870620001107,500,1,[2.3621326999855228],[2.3621423000004143],,,,,01N,001,2024-11-11_22h15.18.938,INTENTIONAL_BINDING_TASK_NUTAN_KAIN_AU2220019,2024.1.5,None,2024-11-11 22h15.34.520609 +0530,
0.1,1000,exp,2,11,35,3,189.60451450000983,,,,,,,,,189.5898440000019,189.60451450000983,190.60336909996113,190.60336909996113,190.60336909996113,190.98836259997915,space,0.3688462999998592,None,190.98925099999178,191.1034568666403,191.42481289996067,191.40279540000483,191.40284970001085,191.42481289996067,191.42481289996067,191.42481289996067,193.5187234999612,600,1,[2.1133520000148565],[2.113361200026702],,,,,01N,001,2024-11-11_22h15.18.938,INTENTIONAL_BINDING_TASK_NUTAN_KAIN_AU2220019,2024.1.5,None,2024-11-11 22h15.34.520609 +0530,
0.7,1000,exp,3,0,36,5,193.53379660000792,,,,,,,,,193.51971369999228,193.53379660000792,194.53363429999445,194.53363429999445,194.53363429999445,194.85179939999944,space,0.30481360002886504,None,194.8528612999944,195.56627486664027,195.8855981999659,195.86246899998514,195.86256340000546,195.8855981999659,195.8855981999659,195.8855981999659,197.66497260000324,600,1,[1.7987960999598727],[1.7988111000158824],,,,,01N,001,2024-11-11_22h15.18.938,INTENTIONAL_BINDING_TASK_NUTAN_KAIN_AU2220019,2024.1.5,None,2024-11-11 22h15.34.520609 +0530,
0.4,1000,exp,3,1,37,7,197.67982109996956,,,,,,,,,197.66645720001543,197.67982109996956,198.6799328000052,198.6799328000052,198.6799328000052,199.1638629999943,space,0.4671311000129208,None,199.16485539998394,199.57880546665208,199.89557359996252,199.87134770001285,199.8714159000083,199.89557359996252,199.89557359996252,199.89557359996252,201.66049659997225,400,1,[1.7862410999950953],[1.7862781999865547],,,,,01N,001,2024-11-11_22h15.18.938,INTENTIONAL_BINDING_TASK_NUTAN_KAIN_AU2220019,2024.1.5,None,2024-11-11 22h15.34.520609 +0530,
0.7,1000,exp,3,2,38,8,201.6760128000169,,,,,,,,,201.66164949996164,201.6760128000169,202.6758608999662,202.6758608999662,202.6758608999662,203.06074059999082,space,0.3733312000404112,None,203.061639499967,203.7749797666368,204.0952836999786,204.07184119999874,204.07191860000603,204.0952836999786,204.0952836999786,204.0952836999786,205.90694289997919,600,1,[1.8313387000234798],[1.8313527000136673],,,,,01N,001,2024-11-11_22h15.18.938,INTENTIONAL_BINDING_TASK_NUTAN_KAIN_AU2220019,2024.1.5,None,2024-11-11 22h15.34.520609 +0530,
0.7,1000,exp,3,3,39,11,205.92254419997334,,,,,,,,,205.9081585999811,205.92254419997334,206.9217997000087,206.9217997000087,206.9217997000087,207.60714330000337,space,0.6800987000460736,None,207.60820959997363,208.32017926662618,208.6311532999971,208.61185909999767,208.61191089998465,208.6311532999971,208.6311532999971,208.6311532999971,210.0351849999861,600,1,[1.420977700036019],[1.4209865999873728],,,,,01N,001,2024-11-11_22h15.18.938,INTENTIONAL_BINDING_TASK_NUTAN_KAIN_AU2220019,2024.1.5,None,2024-11-11 22h15.34.520609 +0530,
0.1,1000,exp,3,4,40,3,210.0511044000159,,,,,,,,,210.03614059998654,210.0511044000159,211.0503859000164,211.0503859000164,211.0503859000164,211.65334779996192,space,0.600522099994123,None,211.65444010001374,211.76690916665055,212.08612019999418,212.0610627999995,212.06111229996895,212.08612019999418,212.08612019999418,212.08612019999418,213.9317056,600,1,[1.867958799994085],[1.8679695999599062],,,,,01N,001,2024-11-11_22h15.18.938,INTENTIONAL_BINDING_TASK_NUTAN_KAIN_AU2220019,2024.1.5,None,2024-11-11 22h15.34.520609 +0530,
0.4,1000,exp,3,5,41,10,213.94700129999546,,,,,,,,,213.93276820000028,213.94700129999546,214.94706919998862,214.94706919998862,214.94706919998862,215.29852630000096,space,0.34012090001488104,None,215.29947759996867,215.71332016663317,216.04545350000262,216.02796639996814,216.02800699998625,216.04545350000262,216.04545350000262,216.04545350000262,217.74580739997327,600,1,[1.7154218000359833],[1.715439099993091],,,,,01N,001,2024-11-11_22h15.18.938,INTENTIONAL_BINDING_TASK_NUTAN_KAIN_AU2220019,2024.1.5,None,2024-11-11 22h15.34.520609 +0530,
0.4,1000,exp,3,6,42,4,217.7602105999831,,,,,,,,,217.74803019996034,217.7602105999831,218.76014249998843,218.76014249998843,218.76014249998843,219.46053089998895,space,0.6887379999971017,None,219.4614613999729,219.8759624666457,220.19332660001237,220.1718172999681,220.17188829998486,220.19332660001237,220.19332660001237,220.19332660001237,222.35781299998052,300,1,[2.182167799968738],[2.182184999983292],,,,,01N,001,2024-11-11_22h15.18.938,INTENTIONAL_BINDING_TASK_NUTAN_KAIN_AU2220019,2024.1.5,None,2024-11-11 22h15.34.520609 +0530,
0.4,400,unexp,3,7,43,1,222.3724657999701,,,,,,,,,222.35932649997994,222.3724657999701,223.37242079997668,223.37242079997668,223.37242079997668,223.77382010000292,space,0.3872461999999359,None,223.7748913000105,224.18861156667506,224.50703649997013,224.48161249997793,224.48167629999807,224.50703649997013,224.50703649997013,224.50703649997013,229.28464789997088,400,1,[4.799844000022858],[4.799855699995533],,,,,01N,001,2024-11-11_22h15.18.938,INTENTIONAL_BINDING_TASK_NUTAN_KAIN_AU2220019,2024.1.5,None,2024-11-11 22h15.34.520609 +0530,
0.1,400,unexp,3,8,44,0,229.298645199975,,,,,,,,,229.2856278999825,229.298645199975,230.29884140001377,230.29884140001377,230.29884140001377,231.71578739996767,space,1.4077488000039011,None,231.71688129997347,231.83098586666554,232.15160280000418,232.12424929998815,232.1243187999935,232.15160280000418,232.15160280000418,232.15160280000418,234.69539249996888,500,1,[2.5680763999698684],[2.568090399960056],,,,,01N,001,2024-11-11_22h15.18.938,INTENTIONAL_BINDING_TASK_NUTAN_KAIN_AU2220019,2024.1.5,None,2024-11-11 22h15.34.520609 +0530,
0.1,1000,exp,3,9,45,9,234.71037419995992,,,,,,,,,234.69656589999795,234.71037419995992,235.70950789999915,235.70950789999915,235.72672380000586,236.04561819997616,space,0.33297460002359003,None,236.04665699996985,236.1596496666355,236.47440619999543,236.451281799993,236.45133339997847,236.47440619999543,236.47440619999543,236.47440619999543,239.12460859998828,400,1,[2.671122599975206],[2.6711319999885745],,,,,01N,001,2024-11-11_22h15.18.938,INTENTIONAL_BINDING_TASK_NUTAN_KAIN_AU2220019,2024.1.5,None,2024-11-11 22h15.34.520609 +0530,
0.1,1000,exp,3,10,46,6,239.1387111999793,,,,,,,,,239.1256175999879,239.1387111999793,240.13971439999295,240.13971439999295,240.13971439999295,240.9398274999694,space,0.787577000039164,None,240.9408129999647,241.0556747666599,241.37312209996162,241.35176729998784,241.35183659999166,241.37312209996162,241.37312209996162,241.37312209996162,243.83495869999751,500,1,[2.479845900030341],[2.4798544000368565],,,,,01N,001,2024-11-11_22h15.18.938,INTENTIONAL_BINDING_TASK_NUTAN_KAIN_AU2220019,2024.1.5,None,2024-11-11 22h15.34.520609 +0530,
0.7,400,unexp,3,11,47,2,243.8510030999896,,,,,,,,,243.83582579996437,243.8510030999896,244.83475759997964,244.83475759997964,244.85131759999786,245.36797550000483,space,0.5196120000327937,None,245.36882520001382,246.08409286663326,246.40662640001392,246.38212540000677,246.38222189998487,246.40662640001392,246.40662640001392,246.40662640001392,248.54718459997093,600,1,[2.1627503000199795],[2.162759900034871],,,,,01N,001,2024-11-11_22h15.18.938,INTENTIONAL_BINDING_TASK_NUTAN_KAIN_AU2220019,2024.1.5,None,2024-11-11 22h15.34.520609 +0530,
0.7,400,unexp,4,0,48,2,248.56338479998522,,,,,,,,,248.54800979996799,248.56338479998522,249.56338700000197,249.56338700000197,249.56338700000197,250.31397339998512,space,0.7410593000240624,None,250.31493140000384,251.02885476663167,251.34597029996803,251.32136950001586,251.3214324999717,251.34597029996803,251.34597029996803,251.34597029996803,253.29248969996115,500,1,[1.968816999986302],[1.9688274000072852],,,,,01N,001,2024-11-11_22h15.18.938,INTENTIONAL_BINDING_TASK_NUTAN_KAIN_AU2220019,2024.1.5,None,2024-11-11 22h15.34.520609 +0530,
0.1,1000,exp,4,1,49,9,253.3082568999962,,,,,,,,,253.29354669997701,253.3082568999962,254.29186950001167,254.29186950001167,254.3082807000028,259.4212604999775,space,5.113057199981995,None,259.4222847999772,259.53685036662887,259.85232949996134,259.8309214999899,259.83097159996396,259.85232949996134,259.85232949996134,259.85232949996134,262.7349382999819,400,1,[2.9009083000128157],[2.9009244000189938],,,,,01N,001,2024-11-11_22h15.18.938,INTENTIONAL_BINDING_TASK_NUTAN_KAIN_AU2220019,2024.1.5,None,2024-11-11 22h15.34.520609 +0530,
0.4,1000,exp,4,2,50,7,262.7489931000164,,,,,,,,,262.7362947000074,262.7489931000164,263.74920039996505,263.74920039996505,263.74920039996505,264.6513671000139,space,0.8984179000253789,None,264.6524963999982,265.06335766666257,,265.34120729996357,265.34125649998896,265.3607822000049,265.3607822000049,265.3607822000049,268.04638720001094,600,1,[2.7027067999588326],[2.7027246999787167],,,,,01N,001,2024-11-11_22h15.18.938,INTENTIONAL_BINDING_TASK_NUTAN_KAIN_AU2220019,2024.1.5,None,2024-11-11 22h15.34.520609 +0530,
0.1,400,unexp,4,3,51,0,268.0605317999725,,,,,,,,,268.04746609996073,268.0605317999725,269.0605348999961,269.0605348999961,269.0605348999961,269.17873529996723,space,0.10928750003222376,None,269.17969229997834,269.29411316663413,269.6169341999921,269.59132919996046,269.59162490000017,269.6169341999921,269.6169341999921,269.6169341999921,272.92414650000865,400,1,[3.329248499998357],[3.329260400030762],,,,,01N,001,2024-11-11_22h15.18.938,INTENTIONAL_BINDING_TASK_NUTAN_KAIN_AU2220019,2024.1.5,None,2024-11-11 22h15.34.520609 +0530,
0.4,1000,exp,4,4,52,10,272.93880949995946,,,,,,,,,272.92554490000475,272.93880949995946,273.93848219997017,273.93848219997017,273.93848219997017,275.07450919999974,space,1.1300704999594018,None,275.0756718000048,275.488666866677,275.80112179997377,275.78207079996355,275.78212200000416,275.80112179997377,275.80112179997377,275.80112179997377,277.439726600016,500,1,[1.6531645000213757],[1.6532278999802656],,,,,01N,001,2024-11-11_22h15.18.938,INTENTIONAL_BINDING_TASK_NUTAN_KAIN_AU2220019,2024.1.5,None,2024-11-11 22h15.34.520609 +0530,
0.4,400,unexp,4,5,53,1,277.45176369999535,,,,,,,,,277.4416371000116,277.45176369999535,278.4515091999783,278.4515091999783,278.4515091999783,279.0039485999732,space,0.5502484000171535,None,279.00504969997564,279.4173026666433,279.7356429999927,279.7109133999911,279.7109626000165,279.7356429999927,279.7356429999927,279.7356429999927,281.61658969998825,400,1,[1.9026092999847606],[1.9026260999962687],,,,,01N,001,2024-11-11_22h15.18.938,INTENTIONAL_BINDING_TASK_NUTAN_KAIN_AU2220019,2024.1.5,None,2024-11-11 22h15.34.520609 +0530,
0.7,1000,exp,4,6,54,11,281.6318243999849,,,,,,,,,281.6187066999846,281.6318243999849,282.62992959999247,282.62992959999247,282.64712119998876,283.3309569999692,space,0.6870892000151798,None,283.3320814999752,284.04663336667386,284.36244880000595,284.3414472999866,284.34151259995997,284.36244880000595,284.36244880000595,284.36244880000595,286.0114495999878,500,1,[1.6674543999833986],[1.6674914000323042],,,,,01N,001,2024-11-11_22h15.18.938,INTENTIONAL_BINDING_TASK_NUTAN_KAIN_AU2220019,2024.1.5,None,2024-11-11 22h15.34.520609 +0530,
0.1,1000,exp,4,7,55,3,286.0261770999641,,,,,,,,,286.01241199998185,286.0261770999641,287.0262450000155,287.0262450000155,287.0262450000155,287.51163610001095,space,0.47997509996639565,None,287.51266040001065,287.62632776663327,287.9417340999935,287.92122229997767,287.9212845999864,287.9417340999935,287.9417340999935,287.9417340999935,290.55544540000847,500,1,[2.6320127999642864],[2.6320211999700405],,,,,01N,001,2024-11-11_22h15.18.938,INTENTIONAL_BINDING_TASK_NUTAN_KAIN_AU2220019,2024.1.5,None,2024-11-11 22h15.34.520609 +0530,
0.7,1000,exp,4,8,56,5,290.57215550000547,,,,,,,,,290.5563800999662,290.57215550000547,291.55499219999183,291.55499219999183,291.57246449997183,291.73938899999484,space,0.1737004000460729,None,291.74077209999086,292.4549473666741,292.7730178000056,292.751537300006,292.7516132000019,292.7730178000056,292.7730178000056,292.7730178000056,294.95250680000754,400,1,[2.1976555000292137],[2.197665399988182],,,,,01N,001,2024-11-11_22h15.18.938,INTENTIONAL_BINDING_TASK_NUTAN_KAIN_AU2220019,2024.1.5,None,2024-11-11 22h15.34.520609 +0530,
0.4,1000,exp,4,9,57,4,294.9671384000103,,,,,,,,,294.95360189996427,294.9671384000103,295.96736879996024,295.96736879996024,295.96736879996024,296.3691918000113,space,0.3944904999807477,None,296.37023309996584,296.7837132666648,297.10278169997036,297.0817910999758,297.08187200000975,297.10278169997036,297.10278169997036,297.10278169997036,300.0302065999713,300,1,[2.9456154000363313],[2.9456248999922536],,,,,01N,001,2024-11-11_22h15.18.938,INTENTIONAL_BINDING_TASK_NUTAN_KAIN_AU2220019,2024.1.5,None,2024-11-11 22h15.34.520609 +0530,
0.1,1000,exp,4,10,58,6,300.0454624000122,,,,,,,,,300.0311350999982,300.0454624000122,301.0458402999793,301.0458402999793,301.0458402999793,301.4485587999807,space,0.40076290001161397,None,301.449594900012,301.5626533666548,301.8825865999679,301.86154020001413,301.8615943999612,301.8825865999679,301.8825865999679,301.8825865999679,304.12620190001326,300,1,[2.2623260999680497],[2.262334599974565],,,,,01N,001,2024-11-11_22h15.18.938,INTENTIONAL_BINDING_TASK_NUTAN_KAIN_AU2220019,2024.1.5,None,2024-11-11 22h15.34.520609 +0530,
0.7,1000,exp,4,11,59,8,304.1418640000047,,,,,,,,,304.1271437999676,304.1418640000047,305.1249237000011,305.1249237000011,305.14221759996144,305.4605397999985,space,0.3302962000016123,None,305.46154509996995,306.17318576667844,,306.4159520000103,306.41600409999955,306.43863280001096,306.43863280001096,306.43863280001096,310.23759390000487,300,1,[3.819449500006158],[3.819458800018765],,,,,01N,001,2024-11-11_22h15.18.938,INTENTIONAL_BINDING_TASK_NUTAN_KAIN_AU2220019,2024.1.5,None,2024-11-11 22h15.34.520609 +0530,
0.4,1000,exp,5,0,60,7,310.25266840000404,,,,,,,,,310.23841930000344,310.25266840000404,311.25257630000124,311.25257630000124,311.25257630000124,311.6369100000011,space,0.3731506000040099,None,311.63769579998916,312.05277196667544,312.37167989998125,312.35181540000485,312.35187469999073,312.37167989998125,312.37167989998125,312.37167989998125,314.91645459999563,300,1,[2.5619322000420652],[2.561948000045959],,,,,01N,001,2024-11-11_22h15.18.938,INTENTIONAL_BINDING_TASK_NUTAN_KAIN_AU2220019,2024.1.5,None,2024-11-11 22h15.34.520609 +0530,
0.7,1000,exp,5,1,61,11,314.93165189999854,,,,,,,,,314.91801699995995,314.93165189999854,315.92942940001376,315.92942940001376,315.9467931999825,316.3156595999608,space,0.3791671000071801,None,316.31691890000366,317.03107846668377,317.3509652999928,317.3242876000004,317.32434539997485,317.3509652999928,317.3509652999928,317.3509652999928,318.9951669999864,400,1,[1.6681764000095427],[1.6681876000366174],,,,,01N,001,2024-11-11_22h15.18.938,INTENTIONAL_BINDING_TASK_NUTAN_KAIN_AU2220019,2024.1.5,None,2024-11-11 22h15.34.520609 +0530,
0.1,1000,exp,5,2,62,9,319.01056699996116,,,,,,,,,318.99606340000173,319.01056699996116,320.0121194999665,320.0121194999665,320.0121194999665,320.44514500000514,space,0.4209211999550462,None,320.44610229996033,320.5605648666426,320.87431479996303,320.85129479999887,320.85134579997975,320.87431479996303,320.87431479996303,320.87431479996303,323.60788590001175,400,1,[2.754206100013107],[2.75421650003409],,,,,01N,001,2024-11-11_22h15.18.938,INTENTIONAL_BINDING_TASK_NUTAN_KAIN_AU2220019,2024.1.5,None,2024-11-11 22h15.34.520609 +0530,
0.4,400,unexp,5,3,63,1,323.6226406999631,,,,,,,,,323.609072799969,323.6226406999631,324.62352069996996,324.62352069996996,324.62352069996996,325.0744393999921,space,0.4453454000176862,None,325.07539509999333,325.4891569666836,325.8046105999965,325.7810279999976,325.78107919998,325.8046105999965,325.8046105999965,325.8046105999965,330.084666699986,500,1,[4.301293199998327],[4.301302300009411],,,,,01N,001,2024-11-11_22h15.18.938,INTENTIONAL_BINDING_TASK_NUTAN_KAIN_AU2220019,2024.1.5,None,2024-11-11 22h15.34.520609 +0530,
0.7,400,unexp,5,4,64,2,330.09972200001357,,,,,,,,,330.0855677999789,330.09972200001357,331.0996534000151,331.0996534000151,331.0996534000151,331.48523130000103,space,0.3795856999931857,None,331.4861504000146,332.19894406665503,332.5098651999724,332.49127379996935,332.4913277999731,332.5098651999724,332.5098651999724,332.5098651999724,334.74689279997256,500,1,[2.253452599979937],[2.2534654999617487],,,,,01N,001,2024-11-11_22h15.18.938,INTENTIONAL_BINDING_TASK_NUTAN_KAIN_AU2220019,2024.1.5,None,2024-11-11 22h15.34.520609 +0530,
0.7,1000,exp,5,5,65,8,334.76171349996,,,,,,,,,334.74782369995955,334.76171349996,335.76225989998784,335.76225989998784,335.76225989998784,336.34759919997305,space,0.5817351000150666,None,336.3488647000049,337.0615022666791,337.3751523999963,337.3517625000095,337.35185370000545,337.3751523999963,337.3751523999963,337.3751523999963,339.2078831999679,500,1,[1.8535910000209697],[1.8536005999776535],,,,,01N,001,2024-11-11_22h15.18.938,INTENTIONAL_BINDING_TASK_NUTAN_KAIN_AU2220019,2024.1.5,None,2024-11-11 22h15.34.520609 +0530,
0.7,1000,exp,5,6,66,5,339.2241451999871,,,,,,,,,339.2089745000121,339.2241451999871,340.22406019998016,340.22406019998016,340.22406019998016,340.859403999988,space,0.6321590000297874,None,340.8602555000107,341.57318646664885,341.89464000001317,341.8722120000166,341.8722659999621,341.89464000001317,341.89464000001317,341.89464000001317,343.854339100013,300,1,[1.9797259999904782],[1.9797363000106998],,,,,01N,001,2024-11-11_22h15.18.938,INTENTIONAL_BINDING_TASK_NUTAN_KAIN_AU2220019,2024.1.5,None,2024-11-11 22h15.34.520609 +0530,
0.1,1000,exp,5,7,67,6,343.86960619996535,,,,,,,,,343.8553426999715,343.86960619996535,344.8700996999978,344.8700996999978,344.8700996999978,345.0864981999621,space,0.2020265000173822,None,345.0871466000099,345.1866057666523,345.50356179999653,345.48068539996166,345.48075370001607,345.50356179999653,345.50356179999653,345.50356179999653,351.22961689997464,100,1,[5.74558089999482],[5.745590700011235],,,,,01N,001,2024-11-11_22h15.18.938,INTENTIONAL_BINDING_TASK_NUTAN_KAIN_AU2220019,2024.1.5,None,2024-11-11 22h15.34.520609 +0530,
0.4,1000,exp,5,8,68,4,351.2450686999946,,,,,,,,,351.2305659999838,351.2450686999946,352.2458736000117,352.2458736000117,352.2458736000117,353.4468554999912,space,1.1888652000343427,None,353.44812419998925,353.8614421666755,354.1696984000155,354.15200880001066,354.15205149998656,354.1696984000155,354.1696984000155,354.1696984000155,356.7589125999948,400,1,[2.6048473000410013],[2.604858400009107],,,,,01N,001,2024-11-11_22h15.18.938,INTENTIONAL_BINDING_TASK_NUTAN_KAIN_AU2220019,2024.1.5,None,2024-11-11 22h15.34.520609 +0530,
0.1,400,unexp,5,9,69,0,356.773085599998,,,,,,,,,356.7604082999751,356.773085599998,357.77378519997,357.77378519997,357.77378519997,367.2000628999667,space,9.421579299960285,None,367.20099629997276,367.31444776663943,367.6322280999739,367.6110064999666,367.611078899994,367.6322280999739,367.6322280999739,367.6322280999739,369.8781916999724,500,1,[2.263890000001993],[2.2639146999572404],,,,,01N,001,2024-11-11_22h15.18.938,INTENTIONAL_BINDING_TASK_NUTAN_KAIN_AU2220019,2024.1.5,None,2024-11-11 22h15.34.520609 +0530,
0.4,1000,exp,5,10,70,10,369.8940438000136,,,,,,,,,369.87921739998274,369.8940438000136,370.8945912999916,370.8945912999916,370.8945912999916,371.71183669997845,space,0.8087721000192687,None,371.7128422000096,372.126312966637,372.4460984999896,372.42097729997477,372.42102359997807,372.4460984999896,372.4460984999896,372.4460984999896,376.1387947999756,500,1,[3.7152034000027925],[3.7152130999602377],,,,,01N,001,2024-11-11_22h15.18.938,INTENTIONAL_BINDING_TASK_NUTAN_KAIN_AU2220019,2024.1.5,None,2024-11-11 22h15.34.520609 +0530,
0.1,1000,exp,5,11,71,3,376.15452679997543,,,,,,,,,376.13967429997865,376.15452679997543,377.1553208999685,377.1553208999685,377.1553208999685,377.4551433000015,space,0.28448589995969087,None,377.4559792999644,377.57146486663646,377.88209029997233,377.8627213999862,377.8627730999724,377.88209029997233,377.88209029997233,377.88209029997233,380.1872922999901,500,1,[2.321979600004852],[2.32199829997262],,,,,01N,001,2024-11-11_22h15.18.938,INTENTIONAL_BINDING_TASK_NUTAN_KAIN_AU2220019,2024.1.5,None,2024-11-11 22h15.34.520609 +0530,
0.1,1000,exp,6,0,72,9,380.2009886999731,,,,,,,,,380.18886649998603,380.2009886999731,381.2009245000081,381.2009245000081,381.2009245000081,381.5681709999917,space,0.35284509998746216,None,381.5690690999618,381.683727366679,382.003873699985,381.9824740999611,381.98252959997626,382.003873699985,382.003873699985,382.003873699985,384.08101949997945,500,1,[2.0959969999967143],[2.0960057000047527],,,,,01N,001,2024-11-11_22h15.18.938,INTENTIONAL_BINDING_TASK_NUTAN_KAIN_AU2220019,2024.1.5,None,2024-11-11 22h15.34.520609 +0530,
0.4,1000,exp,6,1,73,4,384.0968072999967,,,,,,,,,384.08199360000435,384.0968072999967,385.0972256999812,385.0972256999812,385.0972256999812,385.2477238000138,space,None,None,385.2488599999924,385.6637549666377,385.9954880999867,385.96156679996056,385.9616367999697,385.9954880999867,385.9954880999867,385.9954880999867,388.74332959996536,500,1,[2.779071600001771],[2.779079500003718],,,,,01N,001,2024-11-11_22h15.18.938,INTENTIONAL_BINDING_TASK_NUTAN_KAIN_AU2220019,2024.1.5,None,2024-11-11 22h15.34.520609 +0530,
0.1,1000,exp,6,2,74,6,388.7586242000107,,,,,,,,,388.744170299964,388.7586242000107,389.75797229999444,389.75797229999444,389.75797229999444,390.1270955000073,space,0.361790299997665,None,390.12803079996957,390.24181086663543,390.5585262000095,390.53356209996855,390.5336247999803,390.5585262000095,390.5585262000095,390.5585262000095,392.85665540001355,500,1,[2.320635699958075],[2.320644999970682],,,,,01N,001,2024-11-11_22h15.18.938,INTENTIONAL_BINDING_TASK_NUTAN_KAIN_AU2220019,2024.1.5,None,2024-11-11 22h15.34.520609 +0530,
0.1,1000,exp,6,3,75,3,392.8712857000064,,,,,,,,,392.85742479999317,392.8712857000064,393.87206119997427,393.87206119997427,393.87206119997427,394.20771849999437,space,0.3319496999611147,None,394.2088367000106,394.3215385666738,394.6450904000085,394.62101130001247,394.62110759998905,394.6450904000085,394.6450904000085,394.6450904000085,396.9345519999624,500,1,[2.3111186000169255],[2.3111276000272483],,,,,01N,001,2024-11-11_22h15.18.938,INTENTIONAL_BINDING_TASK_NUTAN_KAIN_AU2220019,2024.1.5,None,2024-11-11 22h15.34.520609 +0530,
0.7,1000,exp,6,4,76,5,396.95070529996883,,,,,,,,,396.93566419999115,396.95070529996883,397.951208799961,397.951208799961,397.951208799961,398.2858588999952,space,0.32699450000654906,None,398.2867889999761,399.00001966662626,399.3111701000016,399.29139969998505,399.29145069996594,399.3111701000016,399.3111701000016,399.3111701000016,401.796893599967,500,1,[2.503075299959164],[2.5030857999809086],,,,,01N,001,2024-11-11_22h15.18.938,INTENTIONAL_BINDING_TASK_NUTAN_KAIN_AU2220019,2024.1.5,None,2024-11-11 22h15.34.520609 +0530,
0.7,400,unexp,6,5,77,2,401.81306279997807,,,,,,,,,401.7981351999915,401.81306279997807,402.8129335999838,402.8129335999838,402.8129335999838,403.11513280001236,space,0.28437149996170774,None,403.11613749997923,403.8291289666706,404.1533913000021,404.13563119998435,404.1356652000104,404.1533913000021,404.1533913000021,404.1533913000021,406.3599298999761,600,1,[2.222264600044582],[2.2222845000214875],,,,,01N,001,2024-11-11_22h15.18.938,INTENTIONAL_BINDING_TASK_NUTAN_KAIN_AU2220019,2024.1.5,None,2024-11-11 22h15.34.520609 +0530,
0.7,1000,exp,6,6,78,11,406.3755368000129,,,,,,,,,406.360849699995,406.3755368000129,407.37473470001714,407.37473470001714,407.39080749999266,407.67458920000354,space,0.2845292999991216,None,407.675325899967,408.38919896667744,408.7064012999763,408.69083979999414,408.69087519997265,408.7064012999763,408.7064012999763,408.7064012999763,410.47342629998457,200,1,[1.7800608000252396],[1.7800796999945305],,,,,01N,001,2024-11-11_22h15.18.938,INTENTIONAL_BINDING_TASK_NUTAN_KAIN_AU2220019,2024.1.5,None,2024-11-11 22h15.34.520609 +0530,
0.4,1000,exp,6,7,79,10,410.4868145000073,,,,,,,,,410.47490909998305,410.4868145000073,411.48866299999645,411.48866299999645,411.48866299999645,411.9231538999593,space,0.43135530001018196,None,411.92421009996906,412.3370876666779,412.65307790000224,412.6309016000014,412.63097619998734,412.65307790000224,412.65307790000224,412.65307790000224,414.55194619996473,100,1,[1.9181163999601267],[1.9181253999704495],,,,,01N,001,2024-11-11_22h15.18.938,INTENTIONAL_BINDING_TASK_NUTAN_KAIN_AU2220019,2024.1.5,None,2024-11-11 22h15.34.520609 +0530,
0.7,1000,exp,6,8,80,8,414.56668240000727,,,,,,,,,414.5528518999927,414.56668240000727,415.56707099999767,415.56707099999767,415.56707099999767,415.9020184999681,space,0.3203513999469578,None,415.90282379998825,416.6162142666328,416.93193439999595,416.91077159997076,416.9108192999847,416.93193439999595,416.93193439999595,416.93193439999595,418.8970484000165,100,1,[1.9831429000478238],[1.983152800006792],,,,,01N,001,2024-11-11_22h15.18.938,INTENTIONAL_BINDING_TASK_NUTAN_KAIN_AU2220019,2024.1.5,None,2024-11-11 22h15.34.520609 +0530,
0.1,400,unexp,6,9,81,0,418.91356819996145,,,,,,,,,418.89817810000386,418.91356819996145,419.91225699998904,419.91225699998904,419.9289329999592,420.53112960001454,space,0.6091786999604665,None,420.53207989997463,420.645691066635,420.96241420001024,420.94166820001556,420.9417409999878,420.96241420001024,420.96241420001024,420.96241420001024,424.6755930999643,500,1,[3.7306042999844067],[3.7306140000000596],,,,,01N,001,2024-11-11_22h15.18.938,INTENTIONAL_BINDING_TASK_NUTAN_KAIN_AU2220019,2024.1.5,None,2024-11-11 22h15.34.520609 +0530,
0.4,1000,exp,6,10,82,7,424.68992649996653,,,,,,,,,424.67656759999227,424.68992649996653,425.6910091000027,425.6910091000027,425.6910091000027,426.69129290001,space,0.991156600008253,None,426.6919639999978,427.104869166684,427.4243611000129,427.4003696999862,427.40042079996783,427.4243611000129,427.4243611000129,427.4243611000129,429.2217204999761,300,1,[1.8184901000349782],[1.8185051000327803],,,,,01N,001,2024-11-11_22h15.18.938,INTENTIONAL_BINDING_TASK_NUTAN_KAIN_AU2220019,2024.1.5,None,2024-11-11 22h15.34.520609 +0530,
0.4,400,unexp,6,11,83,1,429.2355019999668,,,,,,,,,429.22272550000343,429.2355019999668,430.23635949997697,430.23635949997697,430.23635949997697,431.50240940001095,space,1.2499468000023626,None,431.50324739998905,431.918393666627,432.2328378999955,432.21118320000824,432.21123979997355,432.2328378999955,432.2328378999955,432.2328378999955,434.1819433000055,400,1,[1.9680688999942504],[1.9680782000068575],,,,,01N,001,2024-11-11_22h15.18.938,INTENTIONAL_BINDING_TASK_NUTAN_KAIN_AU2220019,2024.1.5,None,2024-11-11 22h15.34.520609 +0530,
0.4,1000,exp,7,0,84,4,434.1972226999933,,,,,,,,,434.1828581999871,434.1972226999933,435.1976529000094,435.1976529000094,435.1976529000094,435.7494136999594,space,0.5441527999937534,None,435.75051709997933,436.16356366663626,436.4833064000122,436.46100199996727,436.4611900000018,436.4833064000122,436.4833064000122,436.4833064000122,438.494420300005,500,1,[2.030068200023379],[2.030077900039032],,,,,01N,001,2024-11-11_22h15.18.938,INTENTIONAL_BINDING_TASK_NUTAN_KAIN_AU2220019,2024.1.5,None,2024-11-11 22h15.34.520609 +0530,
0.1,1000,exp,7,1,85,6,438.51000090001617,,,,,,,,,438.4954047999927,438.51000090001617,439.51052869996056,439.51052869996056,439.51052869996056,439.878879899974,space,0.3629533000057563,None,439.8798478000099,439.9934357666682,440.31334329996025,440.30192800000077,440.3019592000055,440.31334329996025,440.31334329996025,440.31334329996025,442.47331460000714,300,1,[2.170020600024145],[2.170029000029899],,,,,01N,001,2024-11-11_22h15.18.938,INTENTIONAL_BINDING_TASK_NUTAN_KAIN_AU2220019,2024.1.5,None,2024-11-11 22h15.34.520609 +0530,
0.7,1000,exp,7,2,86,11,442.48945779999485,,,,,,,,,442.4742317000055,442.48945779999485,443.48951449996093,443.48951449996093,443.48951449996093,444.32441190001555,space,0.8228324999799952,None,444.3257087999955,445.03737196664247,445.37306620000163,445.34499559999676,445.34506259998307,445.37306620000163,445.37306620000163,445.37306620000163,447.83572079997975,500,1,[2.4877588000381365],[2.4877733000321314],,,,,01N,001,2024-11-11_22h15.18.938,INTENTIONAL_BINDING_TASK_NUTAN_KAIN_AU2220019,2024.1.5,None,2024-11-11 22h15.34.520609 +0530,
0.7,1000,exp,7,3,87,5,447.85111190000316,,,,,,,,,447.8370113999699,447.85111190000316,448.8497040999937,448.8497040999937,448.8497040999937,449.4179788999609,space,0.555371499969624,None,449.41901599999983,450.1337158666613,450.4541676999652,450.43211789999623,450.43218429997796,450.4541676999652,450.4541676999652,450.4541676999652,452.64733539998997,500,1,[2.2128353999578394],[2.2128494999487884],,,,,01N,001,2024-11-11_22h15.18.938,INTENTIONAL_BINDING_TASK_NUTAN_KAIN_AU2220019,2024.1.5,None,2024-11-11 22h15.34.520609 +0530,
0.1,400,unexp,7,4,88,0,452.66287090000696,,,,,,,,,452.64879279996967,452.66287090000696,453.66321899998,453.66321899998,453.66321899998,454.53116939996835,space,0.8539155999897048,None,454.53209019999485,454.64550926664765,454.9608392000082,454.9411231999984,454.94118409999646,454.9608392000082,454.9608392000082,454.9608392000082,457.6262155000004,100,1,[2.682802500028629],[2.68281140003819],,,,,01N,001,2024-11-11_22h15.18.938,INTENTIONAL_BINDING_TASK_NUTAN_KAIN_AU2220019,2024.1.5,None,2024-11-11 22h15.34.520609 +0530,
0.4,400,unexp,7,5,89,1,457.6414484999841,,,,,,,,,457.6271168999956,457.6414484999841,458.64119799999753,458.64119799999753,458.64119799999753,459.310740099987,space,0.665812499995809,None,459.3122191000148,459.72357426665644,460.0440399000072,460.02103920001537,460.0211142000044,460.0440399000072,460.0440399000072,460.0440399000072,462.70482109999284,300,1,[2.6807323999819346],[2.680741799995303],,,,,01N,001,2024-11-11_22h15.18.938,INTENTIONAL_BINDING_TASK_NUTAN_KAIN_AU2220019,2024.1.5,None,2024-11-11 22h15.34.520609 +0530,
0.1,1000,exp,7,6,90,3,462.71924299997045,,,,,,,,,462.7056977999746,462.71924299997045,463.7199806999997,463.7199806999997,463.7199806999997,464.1873567000148,space,0.45943550002994016,None,464.18825850001303,464.30239596666456,464.62420199997723,464.6022452999605,464.6023051000084,464.62420199997723,464.62420199997723,464.62420199997723,466.7172428999911,500,1,[2.112259899964556],[2.1122735000099055],,,,,01N,001,2024-11-11_22h15.18.938,INTENTIONAL_BINDING_TASK_NUTAN_KAIN_AU2220019,2024.1.5,None,2024-11-11 22h15.34.520609 +0530,
0.7,400,unexp,7,7,91,2,466.73256540001603,,,,,,,,,466.7188159999787,466.73256540001603,467.7324362999643,467.7324362999643,467.7324362999643,468.4340460000094,space,0.6957653999561444,None,468.43489350000164,469.14873896667655,469.46624849998625,469.4407014999888,469.4407629999914,469.46624849998625,469.46624849998625,469.46624849998625,471.39484680001624,500,1,[1.951673400006257],[1.9516827000188641],,,,,01N,001,2024-11-11_22h15.18.938,INTENTIONAL_BINDING_TASK_NUTAN_KAIN_AU2220019,2024.1.5,None,2024-11-11 22h15.34.520609 +0530,
0.7,1000,exp,7,8,92,8,471.41077529999893,,,,,,,,,471.3958744999836,471.41077529999893,472.41165019996697,472.41165019996697,472.41165019996697,473.5944973999867,space,1.1688319999957457,None,473.59520079998765,474.309472566649,474.62415950000286,474.6007205999922,474.6007702999632,474.62415950000286,474.62415950000286,474.62415950000286,476.2409056999604,400,1,[1.6377298000152223],[1.6377382000209764],,,,,01N,001,2024-11-11_22h15.18.938,INTENTIONAL_BINDING_TASK_NUTAN_KAIN_AU2220019,2024.1.5,None,2024-11-11 22h15.34.520609 +0530,
0.4,1000,exp,7,9,93,10,476.256631599972,,,,,,,,,476.2417938999715,476.256631599972,477.2569081999827,477.2569081999827,477.2569081999827,477.8069201000035,space,0.5335040999925695,None,477.80772639997303,478.2069884666746,478.52491440001177,478.50114959996426,478.5012229999993,478.52491440001177,478.52491440001177,478.52491440001177,481.1692636999651,700,1,[2.664883599965833],[2.6648940999875776],,,,,01N,001,2024-11-11_22h15.18.938,INTENTIONAL_BINDING_TASK_NUTAN_KAIN_AU2220019,2024.1.5,None,2024-11-11 22h15.34.520609 +0530,
0.4,1000,exp,7,10,94,7,481.18511129997205,,,,,,,,,481.17032330000075,481.18511129997205,482.18522639997536,482.18522639997536,482.18522639997536,482.83742629998596,space,0.648430000001099,None,482.83846900000935,483.2508378666282,483.56866889999947,483.54302549996646,483.543084600009,483.56866889999947,483.56866889999947,483.56866889999947,485.60139129997697,700,1,[2.0554008000181057],[2.0554175000288524],,,,,01N,001,2024-11-11_22h15.18.938,INTENTIONAL_BINDING_TASK_NUTAN_KAIN_AU2220019,2024.1.5,None,2024-11-11 22h15.34.520609 +0530,
0.1,1000,exp,7,11,95,9,485.61394869996,,,,,,,,,485.6028645999613,485.61394869996,486.6142923000152,486.6142923000152,486.6142923000152,486.99864649999654,space,0.3681553999776952,None,486.999604600016,487.1142037666325,487.43424979998963,487.4107809999841,487.41085679997923,487.43424979998963,487.43424979998963,487.43424979998963,489.8613167000003,500,1,[2.4471819000318646],[2.4471944000106305],,,,,01N,001,2024-11-11_22h15.18.938,INTENTIONAL_BINDING_TASK_NUTAN_KAIN_AU2220019,2024.1.5,None,2024-11-11 22h15.34.520609 +0530,
0.7,1000,exp,8,0,96,11,489.87709729996277,,,,,,,,,489.8626894999761,489.87709729996277,490.8767712999834,490.8767712999834,490.8767712999834,492.25919289997546,space,1.3800542000099085,None,492.26006719999714,492.9751015666445,493.29683989996556,493.281218499993,493.2812642999925,493.29683989996556,493.29683989996556,493.29683989996556,495.00585770001635,700,1,[1.7225738000124693],[1.7225840000319295],,,,,01N,001,2024-11-11_22h15.18.938,INTENTIONAL_BINDING_TASK_NUTAN_KAIN_AU2220019,2024.1.5,None,2024-11-11 22h15.34.520609 +0530,
0.7,400,unexp,8,1,97,2,495.02111969998805,,,,,,,,,495.006668899965,495.02111969998805,496.0213803999941,496.0213803999941,496.0213803999941,496.6731623999658,space,0.6348046000348404,None,496.67451459995937,497.38737516664355,497.7031424000161,497.68059649999486,497.6806453000172,497.7031424000161,497.7031424000161,497.7031424000161,499.7510559000075,800,1,[2.0677918000146747],[2.067800700024236],,,,,01N,001,2024-11-11_22h15.18.938,INTENTIONAL_BINDING_TASK_NUTAN_KAIN_AU2220019,2024.1.5,None,2024-11-11 22h15.34.520609 +0530,
0.7,1000,exp,8,2,98,5,499.7664396999753,,,,,,,,,499.7519053000142,499.7664396999753,500.7671069999924,500.7671069999924,500.7671069999924,501.05087759997696,space,0.26780880003934726,None,501.051596299978,501.76683096663714,502.0872929999605,502.06033040001057,502.0603801999823,502.0872929999605,502.0872929999605,502.0872929999605,504.1294898999622,400,1,[2.066585300024599],[2.0665934000280686],,,,,01N,001,2024-11-11_22h15.18.938,INTENTIONAL_BINDING_TASK_NUTAN_KAIN_AU2220019,2024.1.5,None,2024-11-11 22h15.34.520609 +0530,
0.4,400,unexp,8,3,99,1,504.1451670000097,,,,,,,,,504.130437899963,504.1451670000097,505.12777500000084,505.12777500000084,505.1450887999963,505.4642592999735,space,0.3228549999766983,None,505.4651131000137,505.8787250666685,506.1888572999742,506.170418899972,506.17047780001303,506.1888572999742,506.1888572999742,506.1888572999742,508.14545349997934,500,1,[1.9726292000268586],[1.97264140000334],,,,,01N,001,2024-11-11_22h15.18.938,INTENTIONAL_BINDING_TASK_NUTAN_KAIN_AU2220019,2024.1.5,None,2024-11-11 22h15.34.520609 +0530,
0.7,1000,exp,8,4,100,8,508.1578797000111,,,,,,,,,508.146760899981,508.1578797000111,509.1584121999913,509.1584121999913,509.1584121999913,510.2430838000146,space,1.0728230999666266,None,510.24399789999006,510.9570078666477,511.275235100009,511.2504653999931,511.25051579996943,511.275235100009,511.275235100009,511.275235100009,512.8885400000145,600,1,[1.6353493999922648],[1.6353581000003032],,,,,01N,001,2024-11-11_22h15.18.938,INTENTIONAL_BINDING_TASK_NUTAN_KAIN_AU2220019,2024.1.5,None,2024-11-11 22h15.34.520609 +0530,
0.4,1000,exp,8,5,101,7,512.9036415999872,,,,,,,,,512.8895325000049,512.9036415999872,513.9044805999729,513.9044805999729,513.9044805999729,514.571428700001,space,0.652199300006032,None,514.5723381999996,514.9863618666461,515.3031328999787,515.2806562999613,515.2807090000133,515.3031328999787,515.3031328999787,515.3031328999787,518.399616700015,300,1,[3.11642119998578],[3.116431000002194],,,,,01N,001,2024-11-11_22h15.18.938,INTENTIONAL_BINDING_TASK_NUTAN_KAIN_AU2220019,2024.1.5,None,2024-11-11 22h15.34.520609 +0530,
0.4,1000,exp,8,6,102,10,518.4149751999648,,,,,,,,,518.4005831999821,518.4149751999648,519.4156733999844,519.4156733999844,519.4156733999844,519.8168104999932,space,0.3898343000328168,None,519.8177301000105,520.2309250666333,520.5543989000143,520.5312062000157,520.5312716999906,520.5543989000143,520.5543989000143,520.5543989000143,523.2441269999836,200,1,[2.710598200035747],[2.7106069000437856],,,,,01N,001,2024-11-11_22h15.18.938,INTENTIONAL_BINDING_TASK_NUTAN_KAIN_AU2220019,2024.1.5,None,2024-11-11 22h15.34.520609 +0530,
0.1,1000,exp,8,7,103,3,523.260526099999,,,,,,,,,523.2450954999658,523.260526099999,524.2601419999846,524.2601419999846,524.2601419999846,524.7774656999973,space,0.5012758999946527,None,524.7782452999963,524.8939447666673,525.2143118999666,525.1945161999902,525.1945861999993,525.2143118999666,525.2143118999666,525.2143118999666,527.3585655000061,300,1,[2.1609007999650203],[2.1609153000172228],,,,,01N,001,2024-11-11_22h15.18.938,INTENTIONAL_BINDING_TASK_NUTAN_KAIN_AU2220019,2024.1.5,None,2024-11-11 22h15.34.520609 +0530,
0.1,1000,exp,8,8,104,6,527.3738808999769,,,,,,,,,527.3602093000081,527.3738808999769,528.3728463000152,528.3728463000152,528.3892911999719,529.1247792000067,space,0.7464041999774054,None,529.1258979999693,529.2393818666499,529.5544175999821,529.5305273999693,529.53059390001,529.5544175999821,529.5544175999821,529.5544175999821,531.7195128999883,300,1,[2.186654900026042],[2.1866665999987163],,,,,01N,001,2024-11-11_22h15.18.938,INTENTIONAL_BINDING_TASK_NUTAN_KAIN_AU2220019,2024.1.5,None,2024-11-11 22h15.34.520609 +0530,
0.1,1000,exp,8,9,105,9,531.7353059999878,,,,,,,,,531.7205233999994,531.7353059999878,532.7354909999995,532.7354909999995,532.7354909999995,533.3029532000073,space,0.5553234000108205,None,533.3038678999874,533.4169560666817,533.731640300015,533.7104684999795,533.710518500011,533.731640300015,533.731640300015,533.731640300015,535.8329258000012,300,1,[2.1201779000111856],[2.1201883999747224],,,,,01N,001,2024-11-11_22h15.18.938,INTENTIONAL_BINDING_TASK_NUTAN_KAIN_AU2220019,2024.1.5,None,2024-11-11 22h15.34.520609 +0530,
0.4,1000,exp,8,10,106,4,535.8475623999839,,,,,,,,,535.8342334000045,535.8475623999839,536.8485278000007,536.8485278000007,536.8485278000007,537.7808313000132,space,0.9169451000052504,None,537.7815790000022,538.1806182666371,538.4955042999936,538.471766099974,538.4718318000087,538.4955042999936,538.4955042999936,538.4955042999936,540.3783148999792,400,1,[1.9042299999855459],[1.90423909999663],,,,,01N,001,2024-11-11_22h15.18.938,INTENTIONAL_BINDING_TASK_NUTAN_KAIN_AU2220019,2024.1.5,None,2024-11-11 22h15.34.520609 +0530,
0.1,400,unexp,8,11,107,0,540.3932222999865,,,,,,,,,540.379313500016,540.3932222999865,541.3940851999796,541.3940851999796,541.3940851999796,542.594953599968,space,1.1972348999697715,None,542.5958574999822,542.7091312666346,543.026638499985,543.0007073999732,543.000757700007,543.026638499985,543.026638499985,543.026638499985,547.6555000999942,400,1,[4.652369600022212],[4.652381400053855],,,,,01N,001,2024-11-11_22h15.18.938,INTENTIONAL_BINDING_TASK_NUTAN_KAIN_AU2220019,2024.1.5,None,2024-11-11 22h15.34.520609 +0530,
0.1,400,unexp,9,0,108,0,547.6693342999788,,,,,,,,,547.656539299991,547.6693342999788,548.6697289000149,548.6697289000149,548.6697289000149,549.1710787999909,space,0.4866692000068724,None,549.1722771999775,549.2862371666745,549.6071183999884,549.5805602999753,549.5806119999615,549.6071183999884,549.6071183999884,549.6071183999884,551.386548999988,600,1,[1.8030324000283144],[1.8030480000306852],,,,,01N,001,2024-11-11_22h15.18.938,INTENTIONAL_BINDING_TASK_NUTAN_KAIN_AU2220019,2024.1.5,None,2024-11-11 22h15.34.520609 +0530,
0.7,400,unexp,9,1,109,2,551.3994968999759,,,,,,,,,551.3880084999837,551.3994968999759,552.3986199999927,552.3986199999927,552.3986199999927,552.917830499995,space,0.512131399998907,None,552.9187990999781,553.6324262666787,553.9551019999781,553.9311735999654,553.9312460999936,553.9551019999781,553.9551019999781,553.9551019999781,556.895388600009,400,1,[2.9617872000089847],[2.961796800023876],,,,,01N,001,2024-11-11_22h15.18.938,INTENTIONAL_BINDING_TASK_NUTAN_KAIN_AU2220019,2024.1.5,None,2024-11-11 22h15.34.520609 +0530,
0.7,1000,exp,9,2,110,11,556.9104985999875,,,,,,,,,556.8962948999833,556.9104985999875,557.9112647000002,557.9112647000002,557.9112647000002,558.3794890000136,space,0.46197200001915917,None,558.3804466999718,559.0928547666447,559.412387999997,559.3914844999672,559.3915822000126,559.412387999997,559.412387999997,559.412387999997,561.6402701999759,100,1,[2.2464661999838427],[2.246475099993404],,,,,01N,001,2024-11-11_22h15.18.938,INTENTIONAL_BINDING_TASK_NUTAN_KAIN_AU2220019,2024.1.5,None,2024-11-11 22h15.34.520609 +0530,
0.1,1000,exp,9,3,111,6,561.6561010999721,,,,,,,,,561.6412853999645,561.6561010999721,562.655878599966,562.655878599966,562.655878599966,562.9909127000137,space,0.32497640000656247,None,562.9919112999924,563.1056485666816,563.4240528999944,563.4015207999619,563.4015936999931,563.4240528999944,563.4240528999944,563.4240528999944,565.519710899971,200,1,[2.114506799960509],[2.114519399998244],,,,,01N,001,2024-11-11_22h15.18.938,INTENTIONAL_BINDING_TASK_NUTAN_KAIN_AU2220019,2024.1.5,None,2024-11-11 22h15.34.520609 +0530,
0.4,1000,exp,9,4,112,7,565.5351599999703,,,,,,,,,565.5213777999743,565.5351599999703,566.5364403999993,566.5364403999993,566.5364403999993,567.1055230000056,space,0.566764899995178,None,567.1066660999786,567.5182132666271,567.8305891999626,567.8106809000019,567.8107473999844,567.8305891999626,567.8305891999626,567.8305891999626,570.4827123999712,400,1,[2.6691482000169344],[2.6691597000462934],,,,,01N,001,2024-11-11_22h15.18.938,INTENTIONAL_BINDING_TASK_NUTAN_KAIN_AU2220019,2024.1.5,None,2024-11-11 22h15.34.520609 +0530,
0.1,1000,exp,9,5,113,3,570.4971107000019,,,,,,,,,570.48380799999,570.4971107000019,571.4972646000097,571.4972646000097,571.4972646000097,571.7821780999657,space,0.27483559999382123,None,571.7831022000173,571.8972535666583,572.2154591999715,572.1962001000065,572.1963009999599,572.2154591999715,572.2154591999715,572.2154591999715,575.5263686999679,500,1,[3.3278781000408344],[3.327890800021123],,,,,01N,001,2024-11-11_22h15.18.938,INTENTIONAL_BINDING_TASK_NUTAN_KAIN_AU2220019,2024.1.5,None,2024-11-11 22h15.34.520609 +0530,
0.7,1000,exp,9,6,114,8,575.5421159999678,,,,,,,,,575.5274476999766,575.5421159999678,576.5424203000148,576.5424203000148,576.5424203000148,577.2273697999772,space,0.6797236999846064,None,577.2282848999603,577.9416706666273,578.2622197999735,578.2411206999677,578.2411840999848,578.2622197999735,578.2622197999735,578.2622197999735,581.5710319000063,400,1,[3.3273819999885745],[3.3273905999958515],,,,,01N,001,2024-11-11_22h15.18.938,INTENTIONAL_BINDING_TASK_NUTAN_KAIN_AU2220019,2024.1.5,None,2024-11-11 22h15.34.520609 +0530,
0.1,1000,exp,9,7,115,9,581.5861823000014,,,,,,,,,581.5719354999601,581.5861823000014,582.5861316999653,582.5861316999653,582.5861316999653,583.6531987999915,space,1.0506646999856457,None,583.653963299992,583.7690424666546,584.0831021000049,584.0600846000016,584.0601379,584.0831021000049,584.0831021000049,584.0831021000049,587.8313427999965,400,1,[3.7689019000390545],[3.768911199993454],,,,,01N,001,2024-11-11_22h15.18.938,INTENTIONAL_BINDING_TASK_NUTAN_KAIN_AU2220019,2024.1.5,None,2024-11-11 22h15.34.520609 +0530,
0.4,1000,exp,9,8,116,10,587.8465050999657,,,,,,,,,587.8322660999838,587.8465050999657,588.8471583999926,588.8471583999926,588.8471583999926,590.5984078999609,space,1.7492388000246137,None,590.5991534999921,591.0121000666443,591.3355090999976,591.3111294999835,591.3111809999682,591.3355090999976,591.3355090999976,591.3355090999976,595.5403569999617,300,1,[4.226548500009812],[4.226561899995431],,,,,01N,001,2024-11-11_22h15.18.938,INTENTIONAL_BINDING_TASK_NUTAN_KAIN_AU2220019,2024.1.5,None,2024-11-11 22h15.34.520609 +0530,
0.4,1000,exp,9,9,117,4,595.5561570000136,,,,,,,,,595.5414110000129,595.5561570000136,596.5558772999793,596.5558772999793,596.5558772999793,596.8406397000072,space,0.2707638999563642,None,596.841360899969,597.2556947666492,597.5720746999723,597.5502805999713,597.5503473000135,597.5720746999723,597.5720746999723,597.5720746999723,599.7527647999814,300,1,[2.1992576000047848],[2.1992675000219606],,,,,01N,001,2024-11-11_22h15.18.938,INTENTIONAL_BINDING_TASK_NUTAN_KAIN_AU2220019,2024.1.5,None,2024-11-11 22h15.34.520609 +0530,
0.4,400,unexp,9,10,118,1,599.7687104999786,,,,,,,,,599.753905199992,599.7687104999786,600.7687558999751,600.7687558999751,600.7687558999751,601.2530163999763,space,0.47534090001136065,None,601.2537684999988,601.6684615666784,601.987086899986,601.9671253999695,601.9672308000154,601.987086899986,601.987086899986,601.987086899986,603.8996057999902,200,1,[1.9299250000040047],[1.9299376999842934],,,,,01N,001,2024-11-11_22h15.18.938,INTENTIONAL_BINDING_TASK_NUTAN_KAIN_AU2220019,2024.1.5,None,2024-11-11 22h15.34.520609 +0530,
0.7,1000,exp,9,11,119,5,603.9148183999932,,,,,,,,,603.9014409999945,603.9148183999932,604.9149944999954,604.9149944999954,604.9149944999954,605.2836272999994,space,0.3635517000220716,None,605.2845366999973,605.9976956666835,606.3149881999707,606.3011507999618,606.3012276999652,606.3149881999707,606.3149881999707,606.3149881999707,610.0101005999604,200,1,[3.7071821999852546],[3.7071919000009075],,,,,01N,001,2024-11-11_22h15.18.938,INTENTIONAL_BINDING_TASK_NUTAN_KAIN_AU2220019,2024.1.5,None,2024-11-11 22h15.34.520609 +0530,
0.7,400,unexp,10,0,120,2,610.0250777999754,,,,,,,,,610.0111389000085,610.0250777999754,611.0250698999735,611.0250698999735,611.0250698999735,611.4267208999954,space,0.3929876000038348,None,611.427643699979,612.1414376666692,612.4640304999775,612.4408234999864,612.4408765999833,612.4640304999775,612.4640304999775,612.4640304999775,615.0715776999714,300,1,[2.6282075999770314],[2.628217899997253],,,,,01N,001,2024-11-11_22h15.18.938,INTENTIONAL_BINDING_TASK_NUTAN_KAIN_AU2220019,2024.1.5,None,2024-11-11 22h15.34.520609 +0530,
0.1,400,unexp,10,1,121,0,615.086530999979,,,,,,,,,615.0727050999994,615.086530999979,616.0869408000144,616.0869408000144,616.0869408000144,616.5376887000166,space,0.43940550001570955,None,616.5386418999988,616.6532237666581,616.9693750999868,616.9524939999683,616.9525590999983,616.9693750999868,616.9693750999868,616.9693750999868,619.2020152999903,300,1,[2.246465399977751],[2.2464793999679387],,,,,01N,001,2024-11-11_22h15.18.938,INTENTIONAL_BINDING_TASK_NUTAN_KAIN_AU2220019,2024.1.5,None,2024-11-11 22h15.34.520609 +0530,
0.7,1000,exp,10,2,122,5,619.2158055999898,,,,,,,,,619.2037170999683,619.2158055999898,620.2153148999787,620.2153148999787,620.2153148999787,620.5016419999884,space,0.2788212000159547,None,620.5025557999616,621.2157363666377,621.5333847000147,621.5099561999668,621.5100200999877,621.5333847000147,621.5333847000147,621.5333847000147,623.9460052999784,600,1,[2.4328518000547774],[2.4328784000244923],,,,,01N,001,2024-11-11_22h15.18.938,INTENTIONAL_BINDING_TASK_NUTAN_KAIN_AU2220019,2024.1.5,None,2024-11-11 22h15.34.520609 +0530,
0.7,1000,exp,10,3,123,11,623.9623515999992,,,,,,,,,623.9475429999875,623.9623515999992,624.9619843999972,624.9619843999972,624.9619843999972,630.0251999999746,space,5.056122399982996,None,630.0260767000145,630.7392225666592,631.05427709996,631.0308176999679,631.0308838000055,631.05427709996,631.05427709996,631.05427709996,633.6863140999922,800,1,[2.653260799997952],[2.653269900009036],,,,,01N,001,2024-11-11_22h15.18.938,INTENTIONAL_BINDING_TASK_NUTAN_KAIN_AU2220019,2024.1.5,None,2024-11-11 22h15.34.520609 +0530,
0.1,1000,exp,10,4,124,6,633.7022294999915,,,,,,,,,633.6872273999616,633.7022294999915,634.702304699982,634.702304699982,634.702304699982,636.3212046999834,space,1.6135240999865346,None,636.3220874000108,636.4343111666424,636.755983799987,636.7353337999666,636.7353836999973,636.755983799987,636.755983799987,636.755983799987,639.0640495999833,300,1,[2.3263860999722965],[2.3263951999833807],,,,,01N,001,2024-11-11_22h15.18.938,INTENTIONAL_BINDING_TASK_NUTAN_KAIN_AU2220019,2024.1.5,None,2024-11-11 22h15.34.520609 +0530,
0.4,400,unexp,10,5,125,1,639.0804676999687,,,,,,,,,639.0650274999789,639.0804676999687,640.0632598999655,640.0632598999655,640.0799905000022,640.4986077999929,space,0.4280819999985397,None,640.499846199993,640.9129478666621,641.233489700011,641.2119568999624,641.2120510999812,641.233489700011,641.233489700011,641.233489700011,643.5434242999763,200,1,[2.328996800002642],[2.3290058000129648],,,,,01N,001,2024-11-11_22h15.18.938,INTENTIONAL_BINDING_TASK_NUTAN_KAIN_AU2220019,2024.1.5,None,2024-11-11 22h15.34.520609 +0530,
0.4,1000,exp,10,6,126,10,643.5588056999841,,,,,,,,,643.5442690000054,643.5588056999841,644.5589746999904,644.5589746999904,644.5589746999904,645.1256949999952,space,0.5531335999839939,None,645.1264097999665,645.5416710666652,645.8609104999923,645.8414919999777,645.8415663999622,645.8609104999923,645.8609104999923,645.8609104999923,648.6894107999979,500,1,[2.845094899996184],[2.8451121999532916],,,,,01N,001,2024-11-11_22h15.18.938,INTENTIONAL_BINDING_TASK_NUTAN_KAIN_AU2220019,2024.1.5,None,2024-11-11 22h15.34.520609 +0530,
0.7,1000,exp,10,7,127,8,648.7041011999827,,,,,,,,,648.6913539000088,648.7041011999827,649.7046094000107,649.7046094000107,649.7046094000107,650.4212638000026,space,0.7043793000048026,None,650.4222287000157,651.1358399666535,651.4544691999909,651.4302143999957,651.4302635999629,651.4544691999909,651.4544691999909,651.4544691999909,653.2175976000144,200,1,[1.7847371000098065],[1.7847481000353582],,,,,01N,001,2024-11-11_22h15.18.938,INTENTIONAL_BINDING_TASK_NUTAN_KAIN_AU2220019,2024.1.5,None,2024-11-11 22h15.34.520609 +0530,
0.1,1000,exp,10,8,128,3,653.2331805999856,,,,,,,,,653.2187068999629,653.2331805999856,654.2328607999953,654.2328607999953,654.2328607999953,655.034442299977,space,0.7872625000309199,None,655.0355895999819,655.1491169666444,655.4661705999752,655.4400727999746,655.4401218999992,655.4661705999752,655.4661705999752,655.4661705999752,659.1443931999966,200,1,[3.701776499976404],[3.7017881999490783],,,,,01N,001,2024-11-11_22h15.18.938,INTENTIONAL_BINDING_TASK_NUTAN_KAIN_AU2220019,2024.1.5,None,2024-11-11 22h15.34.520609 +0530,
0.4,1000,exp,10,9,129,4,659.1596387999598,,,,,,,,,659.1458244000096,659.1596387999598,660.160294900008,660.160294900008,660.160294900008,661.7442877999856,space,1.5769367000320926,None,661.7452869999688,662.1586375666704,662.4747397999745,662.4504490999971,662.4504997999757,662.4747397999745,662.4747397999745,662.4747397999745,664.4393674000166,200,1,[1.9865004000021145],[1.9865092000109144],,,,,01N,001,2024-11-11_22h15.18.938,INTENTIONAL_BINDING_TASK_NUTAN_KAIN_AU2220019,2024.1.5,None,2024-11-11 22h15.34.520609 +0530,
0.4,1000,exp,10,10,130,7,664.4551594000077,,,,,,,,,664.4404086999712,664.4551594000077,665.4552175999852,665.4552175999852,665.4552175999852,666.2908849999658,space,0.8293407000019215,None,666.2918073000037,666.7044231666407,667.0278186000069,667.0012663999805,667.001337099995,667.0278186000069,667.0278186000069,667.0278186000069,670.1337043999811,200,1,[3.129194399982225],[3.129202099982649],,,,,01N,001,2024-11-11_22h15.18.938,INTENTIONAL_BINDING_TASK_NUTAN_KAIN_AU2220019,2024.1.5,None,2024-11-11 22h15.34.520609 +0530,
0.1,1000,exp,10,11,131,9,670.1495951999677,,,,,,,,,670.1346200999687,670.1495951999677,671.1495512999827,671.1495512999827,671.1495512999827,672.1168812999967,space,0.9600954999914393,None,672.1178456000052,672.2319362666497,672.5518365000025,672.5313309999765,672.5313882000046,672.5518365000025,672.5518365000025,672.5518365000025,674.8293703999952,200,1,[2.2956161000183783],[2.29562710004393],,,,,01N,001,2024-11-11_22h15.18.938,INTENTIONAL_BINDING_TASK_NUTAN_KAIN_AU2220019,2024.1.5,None,2024-11-11 22h15.34.520609 +0530,
0.4,400,unexp,11,0,132,1,674.845266499964,,,,,,,,,674.8305772999884,674.845266499964,675.8453669999726,675.8453669999726,675.8453669999726,676.5798340999754,space,0.7281832000007853,None,676.580775999988,676.9947619666384,677.3140640999773,677.2910607999656,677.2911346000037,677.3140640999773,677.3140640999773,677.3140640999773,679.6590901999734,300,1,[2.3645070000202395],[2.3645192999974824],,,,,01N,001,2024-11-11_22h15.18.938,INTENTIONAL_BINDING_TASK_NUTAN_KAIN_AU2220019,2024.1.5,None,2024-11-11 22h15.34.520609 +0530,
0.1,1000,exp,11,1,133,3,679.6738137999782,,,,,,,,,679.6603996999911,679.6738137999782,680.6735512000159,680.6735512000159,680.6735512000159,680.9760680999607,space,0.29757140000583604,None,680.9772473999765,681.0901498666537,681.4038679999649,681.3809525999823,681.3810054999776,681.4038679999649,681.4038679999649,681.4038679999649,683.2716922999825,200,1,[1.8878506000037305],[1.887862999981735],,,,,01N,001,2024-11-11_22h15.18.938,INTENTIONAL_BINDING_TASK_NUTAN_KAIN_AU2220019,2024.1.5,None,2024-11-11 22h15.34.520609 +0530,
0.7,1000,exp,11,2,134,11,683.2861712999875,,,,,,,,,683.2726071999641,683.2861712999875,684.286192599975,684.286192599975,684.286192599975,684.9556464999914,space,0.6647501999977976,None,684.9565610999707,685.6691857666631,685.9800541999866,685.9605210999725,685.9605836999835,685.9800541999866,685.9800541999866,685.9800541999866,689.248125299986,200,1,[3.2852429000195116],[3.2852504000184126],,,,,01N,001,2024-11-11_22h15.18.938,INTENTIONAL_BINDING_TASK_NUTAN_KAIN_AU2220019,2024.1.5,None,2024-11-11 22h15.34.520609 +0530,
0.1,1000,exp,11,3,135,6,689.2639910000144,,,,,,,,,689.2490993000101,689.2639910000144,690.263862999971,690.263862999971,690.263862999971,690.7489037999767,space,0.47198410000419244,None,690.7498269999633,690.8636715666546,691.1834464999847,691.1605542000034,691.1606232000049,691.1834464999847,691.1834464999847,691.1834464999847,693.4465248999768,200,1,[2.2824814000050537],[2.28249599999981],,,,,01N,001,2024-11-11_22h15.18.938,INTENTIONAL_BINDING_TASK_NUTAN_KAIN_AU2220019,2024.1.5,None,2024-11-11 22h15.34.520609 +0530,
0.4,1000,exp,11,4,136,4,693.4605406000046,,,,,,,,,693.4480949999997,693.4605406000046,694.4601776999771,694.4601776999771,694.4601776999771,695.311162900005,space,0.8365600999677554,None,695.3121632999973,695.7257168666731,696.0423272000044,696.0198705999646,696.0199220000068,696.0423272000044,696.0423272000044,696.0423272000044,698.9724221999641,200,1,[2.9487687000073493],[2.9487800000351854],,,,,01N,001,2024-11-11_22h15.18.938,INTENTIONAL_BINDING_TASK_NUTAN_KAIN_AU2220019,2024.1.5,None,2024-11-11 22h15.34.520609 +0530,
0.4,1000,exp,11,5,137,10,698.9876353999716,,,,,,,,,698.9734072000138,698.9876353999716,699.9879306000075,699.9879306000075,699.9879306000075,700.623806299991,space,0.6330381000298075,None,700.6246428000159,701.0382525666539,701.3566402000142,701.3301171999774,701.3301683000172,701.3566402000142,701.3566402000142,701.3566402000142,703.9179358999827,200,1,[2.584732199960854],[2.5847424999810755],,,,,01N,001,2024-11-11_22h15.18.938,INTENTIONAL_BINDING_TASK_NUTAN_KAIN_AU2220019,2024.1.5,None,2024-11-11 22h15.34.520609 +0530,
0.7,400,unexp,11,6,138,2,703.9326725999708,,,,,,,,,703.9187819999643,703.9326725999708,704.9332145999651,704.9332145999651,704.9332145999651,705.2357460999629,space,0.2930894999881275,None,705.237019799999,705.9488015666759,706.2631915999809,706.2399270999595,706.2399769999902,706.2631915999809,706.2631915999809,706.2631915999809,708.8305583999609,500,1,[2.587729800026864],[2.5877760000294074],,,,,01N,001,2024-11-11_22h15.18.938,INTENTIONAL_BINDING_TASK_NUTAN_KAIN_AU2220019,2024.1.5,None,2024-11-11 22h15.34.520609 +0530,
0.1,1000,exp,11,7,139,9,708.8450491999974,,,,,,,,,708.8327796999947,708.8450491999974,709.8454374999856,709.8454374999856,709.8454374999856,710.1804809999885,space,0.3275569999823347,None,710.1814731999766,710.2950228666343,710.6155229000142,710.5913025999907,710.5913736000075,710.6155229000142,710.6155229000142,710.6155229000142,714.0748146999977,100,1,[3.479901599988807],[3.4799148999736644],,,,,01N,001,2024-11-11_22h15.18.938,INTENTIONAL_BINDING_TASK_NUTAN_KAIN_AU2220019,2024.1.5,None,2024-11-11 22h15.34.520609 +0530,
0.7,1000,exp,11,8,140,5,714.0897462000139,,,,,,,,,714.0761873999727,714.0897462000139,715.0887701999745,715.0887701999745,715.0887701999745,717.0745018000016,space,1.9786149999708869,None,717.0755577000091,717.7879721666725,718.1013491000049,718.0800644999836,718.080115699966,718.1013491000049,718.1013491000049,718.1013491000049,720.4345869999961,300,1,[2.352238000021316],[2.3522462000255473],,,,,01N,001,2024-11-11_22h15.18.938,INTENTIONAL_BINDING_TASK_NUTAN_KAIN_AU2220019,2024.1.5,None,2024-11-11 22h15.34.520609 +0530,
0.7,1000,exp,11,9,141,8,720.4495014999993,,,,,,,,,720.4355145000154,720.4495014999993,721.45051960001,721.45051960001,721.45051960001,722.3672484999988,space,0.9075802000006661,None,722.3681698999717,723.0821744666357,723.4033872999717,723.381629200012,723.3817058000132,723.4033872999717,723.4033872999717,723.4033872999717,726.0975470999838,200,1,[2.713127800030634],[2.713140600011684],,,,,01N,001,2024-11-11_22h15.18.938,INTENTIONAL_BINDING_TASK_NUTAN_KAIN_AU2220019,2024.1.5,None,2024-11-11 22h15.34.520609 +0530,
0.1,400,unexp,11,10,142,0,726.1115481000161,,,,,,,,,726.0989910999779,726.1115481000161,727.1113899999764,727.1113899999764,727.1113899999764,727.7286960000056,space,0.6029649000265636,None,727.7293846000102,727.8284568666752,728.138429499988,728.1198851999943,728.1199372999836,728.138429499988,728.138429499988,728.138429499988,731.49074009998,400,1,[3.368535800022073],[3.3685456999810413],,,,,01N,001,2024-11-11_22h15.18.938,INTENTIONAL_BINDING_TASK_NUTAN_KAIN_AU2220019,2024.1.5,None,2024-11-11 22h15.34.520609 +0530,
0.4,1000,exp,11,11,143,7,731.5060393000022,,,,,,,,,731.4917844000156,731.5060393000022,732.5059495000169,732.5059495000169,732.5059495000169,733.056753700017,space,0.5344841000041924,None,733.057459499978,733.4716733666758,733.7953883999726,733.7709730999777,733.7710266999784,733.7953883999726,733.7953883999726,733.7953883999726,736.7357229999616,200,1,[2.962125499965623],[2.9621374999987893],,,,,01N,001,2024-11-11_22h15.18.938,INTENTIONAL_BINDING_TASK_NUTAN_KAIN_AU2220019,2024.1.5,None,2024-11-11 22h15.34.520609 +0530,
0.4,1000,exp,12,0,144,7,736.7514074000064,,,,,,,,,736.7371684999671,736.7514074000064,737.7512524999911,737.7512524999911,737.7512524999911,738.1856374999625,space,0.4248515999643132,None,738.1864651999786,738.6008533666648,738.9213163999957,738.9017386999913,738.9017879999592,738.9213163999957,738.9213163999957,738.9213163999957,741.814060100005,200,1,[2.9098503999994136],[2.9098615999682806],,,,,01N,001,2024-11-11_22h15.18.938,INTENTIONAL_BINDING_TASK_NUTAN_KAIN_AU2220019,2024.1.5,None,2024-11-11 22h15.34.520609 +0530,
0.7,400,unexp,12,1,145,2,741.8288597000064,,,,,,,,,741.8152851999621,741.8288597000064,742.8296347999712,742.8296347999712,742.8296347999712,743.214913200005,space,0.38074480002978817,None,743.2158970999881,743.928024166675,744.2416281999904,744.220205999969,744.2202554999967,744.2416281999904,744.2416281999904,744.2416281999904,746.5429330999614,300,1,[2.320371799985878],[2.3203808999969624],,,,,01N,001,2024-11-11_22h15.18.938,INTENTIONAL_BINDING_TASK_NUTAN_KAIN_AU2220019,2024.1.5,None,2024-11-11 22h15.34.520609 +0530,
0.1,1000,exp,12,2,146,9,746.5578832000028,,,,,,,,,746.543909400003,746.5578832000028,747.5582644999959,747.5582644999959,747.5582644999959,748.3585432000109,space,0.7928745999815874,None,748.3594907000079,748.4740690666406,748.7895776999649,748.7704225999769,748.7705062999739,748.7895776999649,748.7895776999649,748.7895776999649,752.3538685999811,200,1,[3.5800563999800943],[3.5800711999763735],,,,,01N,001,2024-11-11_22h15.18.938,INTENTIONAL_BINDING_TASK_NUTAN_KAIN_AU2220019,2024.1.5,None,2024-11-11 22h15.34.520609 +0530,
0.7,1000,exp,12,3,147,8,752.3682961000013,,,,,,,,,752.3549424000084,752.3682961000013,753.368609600002,753.368609600002,753.368609600002,754.2529077999643,space,0.8790561999776401,None,754.2536190999672,754.9681177666682,755.2788351000054,755.2600914000068,755.2601425999892,755.2788351000054,755.2788351000054,755.2788351000054,757.8320019000093,200,1,[2.5696147000417113],[2.5696248000022024],,,,,01N,001,2024-11-11_22h15.18.938,INTENTIONAL_BINDING_TASK_NUTAN_KAIN_AU2220019,2024.1.5,None,2024-11-11 22h15.34.520609 +0530,
0.1,1000,exp,12,4,148,6,757.846524099994,,,,,,,,,757.833152599982,757.846524099994,758.84714540001,758.84714540001,758.84714540001,759.2327965999721,space,0.3694855999783613,None,759.2341971999849,759.346979966682,759.6597709999769,759.639786100015,759.6398358999868,759.6597709999769,759.6597709999769,759.6597709999769,762.2932406999753,300,1,[2.651242599997204],[2.6512518000090495],,,,,01N,001,2024-11-11_22h15.18.938,INTENTIONAL_BINDING_TASK_NUTAN_KAIN_AU2220019,2024.1.5,None,2024-11-11 22h15.34.520609 +0530,
0.7,1000,exp,12,5,149,11,762.3086495999596,,,,,,,,,762.2942177999648,762.3086495999596,763.3089650999755,763.3089650999755,763.3089650999755,763.6942907999619,space,0.3707527000224218,None,763.6952529000118,764.4082633666733,764.7202161999885,764.7000933999661,764.7001804999891,764.7202161999885,764.7202161999885,764.7202161999885,767.0724753999966,300,1,[2.369941100012511],[2.3699512000312097],,,,,01N,001,2024-11-11_22h15.18.938,INTENTIONAL_BINDING_TASK_NUTAN_KAIN_AU2220019,2024.1.5,None,2024-11-11 22h15.34.520609 +0530,
0.4,1000,exp,12,6,150,10,767.0875522000133,,,,,,,,,767.0734454999911,767.0875522000133,768.0878097999957,768.0878097999957,768.0878097999957,768.722400699975,space,0.6219680999638513,None,768.7233852999634,769.1380469666367,769.4549486999749,769.4298987999791,769.4299496000167,769.4549486999749,769.4549486999749,769.4549486999749,772.0011765999952,500,1,[2.5679772999719717],[2.567988199996762],,,,,01N,001,2024-11-11_22h15.18.938,INTENTIONAL_BINDING_TASK_NUTAN_KAIN_AU2220019,2024.1.5,None,2024-11-11 22h15.34.520609 +0530,
0.1,1000,exp,12,7,151,3,772.0162863999722,,,,,,,,,772.0024883999722,772.0162863999722,773.0167283999617,773.0167283999617,773.0167283999617,774.582911400008,space,1.5487946000066586,None,774.5836347999866,774.6982103666562,775.018476600002,774.9946093999897,774.9946841999772,775.018476600002,775.018476600002,775.018476600002,777.6948473000084,200,1,[2.697004899964668],[2.697015999990981],,,,,01N,001,2024-11-11_22h15.18.938,INTENTIONAL_BINDING_TASK_NUTAN_KAIN_AU2220019,2024.1.5,None,2024-11-11 22h15.34.520609 +0530,
0.7,1000,exp,12,8,152,5,777.7106662999722,,,,,,,,,777.6957956000115,777.7106662999722,778.7110381000093,778.7110381000093,778.7110381000093,779.0627314000158,space,0.3345326000126079,None,779.0637287999853,779.7768897666285,780.0985808999976,780.0781330000027,780.0781866000034,780.0985808999976,780.0985808999976,780.0985808999976,784.5212733999942,600,1,[4.440940400003456],[4.4409492000122555],,,,,01N,001,2024-11-11_22h15.18.938,INTENTIONAL_BINDING_TASK_NUTAN_KAIN_AU2220019,2024.1.5,None,2024-11-11 22h15.34.520609 +0530,
0.1,400,unexp,12,9,153,0,784.5371966999955,,,,,,,,,784.5222965999856,784.5371966999955,785.5206487000105,785.5206487000105,785.5372176999808,786.222455399984,space,0.6943455999717116,None,786.2234986000112,786.3372578666351,786.6497548999614,786.6295223999768,786.6295743999653,786.6497548999614,786.6497548999614,786.6497548999614,790.6996182000148,200,1,[4.067613700055517],[4.067621900001541],,,,,01N,001,2024-11-11_22h15.18.938,INTENTIONAL_BINDING_TASK_NUTAN_KAIN_AU2220019,2024.1.5,None,2024-11-11 22h15.34.520609 +0530,
0.4,1000,exp,12,10,154,4,790.7143247000058,,,,,,,,,790.7004798999988,790.7143247000058,791.7151245999848,791.7151245999848,791.7151245999848,792.2997370999656,space,0.5797595000476576,None,792.3006972000003,792.7138187666462,793.035040799994,793.0105903999647,793.0106592999655,793.035040799994,793.035040799994,793.035040799994,796.1266858999734,300,1,[3.1131561000365764],[3.1131645999848843],,,,,01N,001,2024-11-11_22h15.18.938,INTENTIONAL_BINDING_TASK_NUTAN_KAIN_AU2220019,2024.1.5,None,2024-11-11 22h15.34.520609 +0530,
0.4,400,unexp,12,11,155,1,796.1428584000096,,,,,,,,,796.1276044999831,796.1428584000096,797.1255922999699,797.1255922999699,797.1428113000002,797.9935192000121,space,0.8577510000322945,None,797.9943853999721,798.4093063666407,798.7309457999654,798.7092048999621,798.70926470001,798.7309457999654,798.7309457999654,798.7309457999654,801.8883700000006,400,1,[3.1768162999651395],[3.176831399963703],,,,,01N,001,2024-11-11_22h15.18.938,INTENTIONAL_BINDING_TASK_NUTAN_KAIN_AU2220019,2024.1.5,None,2024-11-11 22h15.34.520609 +0530,
0.1,400,unexp,13,0,156,0,801.9038075999706,,,,,,,,,801.8895585999708,801.9038075999706,802.9044102999615,802.9044102999615,802.9044102999615,803.4387895999826,space,0.5180348999565467,None,803.4399984999909,803.5529876666299,803.8702783999615,803.8501679999754,803.8502431999659,803.8702783999615,803.8702783999615,803.8702783999615,807.2660459000035,200,1,[3.412596100009978],[3.4126048000180162],,,,,01N,001,2024-11-11_22h15.18.938,INTENTIONAL_BINDING_TASK_NUTAN_KAIN_AU2220019,2024.1.5,None,2024-11-11 22h15.34.520609 +0530,
0.4,400,unexp,13,1,157,1,807.2815109000076,,,,,,,,,807.2669372999808,807.2815109000076,808.2639925999683,808.2639925999683,808.2823886999977,808.8162051999825,space,0.5429828999913298,None,808.8171308999881,809.2308749666593,809.5506326999748,809.5308556999662,809.5309321999666,809.5506326999748,809.5506326999748,809.5506326999748,812.5109730999684,200,1,[2.9776439999695867],[2.9776577000156976],,,,,01N,001,2024-11-11_22h15.18.938,INTENTIONAL_BINDING_TASK_NUTAN_KAIN_AU2220019,2024.1.5,None,2024-11-11 22h15.34.520609 +0530,
0.4,1000,exp,13,2,158,10,812.5263534999685,,,,,,,,,812.5120004999917,812.5263534999685,813.5269514999818,813.5269514999818,813.5269514999818,814.9613785999827,space,1.4283524000202306,None,814.9623310999596,815.3751911666516,815.6924428999773,815.6707165999687,815.6707824000041,815.6924428999773,815.6924428999773,815.6924428999773,818.8048983999761,200,1,[3.131723400030751],[3.1317331000464037],,,,,01N,001,2024-11-11_22h15.18.938,INTENTIONAL_BINDING_TASK_NUTAN_KAIN_AU2220019,2024.1.5,None,2024-11-11 22h15.34.520609 +0530,
0.4,1000,exp,13,3,159,4,818.8201512999949,,,,,,,,,818.8059947000002,818.8201512999949,819.8205161999795,819.8205161999795,819.8205161999795,820.5558878000011,space,0.7294781000236981,None,820.556701399968,820.9690112666615,821.2830494999653,821.2603829000145,821.2604469999787,821.2830494999653,821.2830494999653,821.2830494999653,825.8819920999813,100,1,[4.619155300024431],[4.619167800003197],,,,,01N,001,2024-11-11_22h15.18.938,INTENTIONAL_BINDING_TASK_NUTAN_KAIN_AU2220019,2024.1.5,None,2024-11-11 22h15.34.520609 +0530,
0.7,1000,exp,13,4,160,5,825.8971191999735,,,,,,,,,825.8832950000069,825.8971191999735,826.896408599976,826.896408599976,826.896408599976,827.4986426999676,space,0.5942715000128374,None,827.4999334999593,828.2126522666697,828.5341006999952,828.5105020999908,828.5105594999623,828.5341006999952,828.5341006999952,828.5341006999952,830.8434209999978,100,1,[2.3301786000374705],[2.3301888999994844],,,,,01N,001,2024-11-11_22h15.18.938,INTENTIONAL_BINDING_TASK_NUTAN_KAIN_AU2220019,2024.1.5,None,2024-11-11 22h15.34.520609 +0530,
0.1,1000,exp,13,5,161,3,830.8587717000046,,,,,,,,,830.8444763000007,830.8587717000046,831.8584764999687,831.8584764999687,831.8584764999687,832.2425278999726,space,0.3750761999981478,None,832.2433311999775,832.3588958666699,832.6766236000112,832.6550222999649,832.655093999987,832.6766236000112,832.6766236000112,832.6766236000112,835.9045853000134,300,1,[3.2459285999648273],[3.2459642000030726],,,,,01N,001,2024-11-11_22h15.18.938,INTENTIONAL_BINDING_TASK_NUTAN_KAIN_AU2220019,2024.1.5,None,2024-11-11 22h15.34.520609 +0530,
0.7,400,unexp,13,6,162,2,835.9208028999856,,,,,,,,,835.9058355999878,835.9208028999856,836.9201026000082,836.9201026000082,836.9201026000082,837.4382590999594,space,0.5042804999975488,None,837.4391799999867,838.1528804666634,838.4730549000087,838.4502331999829,838.4503212000127,838.4730549000087,838.4730549000087,838.4730549000087,840.4001631999854,400,1,[1.946813500020653],[1.9468250999925658],,,,,01N,001,2024-11-11_22h15.18.938,INTENTIONAL_BINDING_TASK_NUTAN_KAIN_AU2220019,2024.1.5,None,2024-11-11 22h15.34.520609 +0530,
0.4,1000,exp,13,7,163,7,840.4154251000145,,,,,,,,,840.4011534000165,840.4154251000145,841.4156069000019,841.4156069000019,841.4156069000019,843.0830485000042,space,1.6616797000169754,None,843.0842617999879,843.4976870666762,843.8086127999704,843.7894680000027,843.7895191999851,843.8086127999704,843.8086127999704,843.8086127999704,848.742951799999,100,1,[4.951006899995264],[4.951025000016671],,,,,01N,001,2024-11-11_22h15.18.938,INTENTIONAL_BINDING_TASK_NUTAN_KAIN_AU2220019,2024.1.5,None,2024-11-11 22h15.34.520609 +0530,
0.7,1000,exp,13,8,164,8,848.757989500009,,,,,,,,,848.7440774000133,848.757989500009,849.7576262999792,849.7576262999792,849.7576262999792,850.7263707999955,space,0.9651696999790147,None,850.7273753999616,851.4395072666268,851.7536867000163,851.7312688999809,851.7313194000162,851.7536867000163,851.7536867000163,851.7536867000163,857.3013950000168,200,1,[5.567819899995811],[5.567831500025932],,,,,01N,001,2024-11-11_22h15.18.938,INTENTIONAL_BINDING_TASK_NUTAN_KAIN_AU2220019,2024.1.5,None,2024-11-11 22h15.34.520609 +0530,
0.1,1000,exp,13,9,165,6,857.3155345999985,,,,,,,,,857.302581499971,857.3155345999985,858.3158995999838,858.3158995999838,858.3158995999838,861.4316469999612,space,3.0989948000060394,None,861.4326271999744,861.5465899666344,861.8646030999953,861.8395927000092,861.8396496999776,861.8646030999953,861.8646030999953,861.8646030999953,864.0776158999652,400,1,[2.2357585999998264],[2.2357665000017732],,,,,01N,001,2024-11-11_22h15.18.938,INTENTIONAL_BINDING_TASK_NUTAN_KAIN_AU2220019,2024.1.5,None,2024-11-11 22h15.34.520609 +0530,
0.1,1000,exp,13,10,166,9,864.0920146999997,,,,,,,,,864.0783967999741,864.0920146999997,865.0929900999763,865.0929900999763,865.0929900999763,865.9927718999679,space,0.8840590000036173,None,865.9935587999644,866.1087218666837,866.4208282000036,866.3995798999676,866.3996322999592,866.4208282000036,866.4208282000036,866.4208282000036,870.7703457999742,200,1,[4.368436100019608],[4.368446099979337],,,,,01N,001,2024-11-11_22h15.18.938,INTENTIONAL_BINDING_TASK_NUTAN_KAIN_AU2220019,2024.1.5,None,2024-11-11 22h15.34.520609 +0530,
0.7,1000,exp,13,11,167,11,870.7860414999886,,,,,,,,,870.7712305000168,870.7860414999886,871.7692191000096,871.7692191000096,871.7856209999882,872.2715744000161,space,0.4972734000184573,None,872.2724727999885,872.9857906666623,873.3095182999969,873.2866894999752,873.2867425999721,873.3095182999969,873.3095182999969,873.3095182999969,875.1002161999932,200,1,[1.8111704000039026],[1.8111799999605864],,,,,01N,001,2024-11-11_22h15.18.938,INTENTIONAL_BINDING_TASK_NUTAN_KAIN_AU2220019,2024.1.5,None,2024-11-11 22h15.34.520609 +0530,
0.7,400,unexp,14,0,168,2,875.1143905000063,,,,,,,,,875.1010985999601,875.1143905000063,876.1152872999664,876.1152872999664,876.1152872999664,877.4162857999909,space,1.2975471999961883,None,877.4172281000065,878.130045366652,878.4511005000095,878.4298232999863,878.429904199962,878.4511005000095,878.4511005000095,878.4511005000095,883.1754724999773,300,1,[4.743029200006276],[4.743040000030305],,,,,01N,001,2024-11-11_22h15.18.938,INTENTIONAL_BINDING_TASK_NUTAN_KAIN_AU2220019,2024.1.5,None,2024-11-11 22h15.34.520609 +0530,
0.4,400,unexp,14,1,169,1,883.1911190999672,,,,,,,,,883.176544099988,883.1911190999672,884.1905703999801,884.1905703999801,884.1905703999801,884.3901740000001,space,0.1945479999994859,None,884.3908333000145,884.7898644666459,885.1160994999809,885.0896465000114,885.0897462000139,885.1160994999809,885.1160994999809,885.1160994999809,890.2350850999937,200,1,[5.143112299963832],[5.143121399974916],,,,,01N,001,2024-11-11_22h15.18.938,INTENTIONAL_BINDING_TASK_NUTAN_KAIN_AU2220019,2024.1.5,None,2024-11-11 22h15.34.520609 +0530,
0.7,1000,exp,14,2,170,5,890.2506336999941,,,,,,,,,890.2359591000131,890.2506336999941,891.2507080999785,891.2507080999785,891.2507080999785,891.7031946000061,space,0.4495590999722481,None,891.704701300012,892.4156735666368,892.7339950999594,892.7094862000085,892.7095421999693,892.7339950999594,892.7339950999594,892.7339950999594,895.7796824999969,200,1,[3.067123699991498],[3.0671348000178114],,,,,01N,001,2024-11-11_22h15.18.938,INTENTIONAL_BINDING_TASK_NUTAN_KAIN_AU2220019,2024.1.5,None,2024-11-11 22h15.34.520609 +0530,
0.1,1000,exp,14,3,171,6,895.7946254999842,,,,,,,,,895.7807142999955,895.7946254999842,896.7951658999664,896.7951658999664,896.7951658999664,897.2137053000042,space,0.4134825000073761,None,897.2148971999995,897.3273293666464,897.63838759996,897.6194827000145,897.6195328999893,897.63838759996,897.63838759996,897.63838759996,899.3763070999994,200,1,[1.7542505000019446],[1.754266700008884],,,,,01N,001,2024-11-11_22h15.18.938,INTENTIONAL_BINDING_TASK_NUTAN_KAIN_AU2220019,2024.1.5,None,2024-11-11 22h15.34.520609 +0530,
0.7,1000,exp,14,4,172,11,899.3913491999847,,,,,,,,,899.3773438999779,899.3913491999847,900.3913961999933,900.3913961999933,900.3913961999933,900.7416826999979,space,0.33506229997146875,None,900.7423447999754,901.457970166641,901.7692376999767,901.7494390999782,901.7494928999804,901.7692376999767,901.7692376999767,901.7692376999767,903.3550655000145,300,1,[1.6031043999828398],[1.6031152000068687],,,,,01N,001,2024-11-11_22h15.18.938,INTENTIONAL_BINDING_TASK_NUTAN_KAIN_AU2220019,2024.1.5,None,2024-11-11 22h15.34.520609 +0530,
0.1,1000,exp,14,5,173,3,903.3708970000152,,,,,,,,,903.3559911999619,903.3708970000152,904.3705625999719,904.3705625999719,904.3705625999719,905.3379145999788,space,0.9544332000077702,None,905.3388688999694,905.45352366666,905.7721291999915,905.7500412999652,905.7501099999645,905.7721291999915,905.7721291999915,905.7721291999915,907.6340513000032,200,1,[1.8805569999967702],[1.880566900013946],,,,,01N,001,2024-11-11_22h15.18.938,INTENTIONAL_BINDING_TASK_NUTAN_KAIN_AU2220019,2024.1.5,None,2024-11-11 22h15.34.520609 +0530,
0.4,1000,exp,14,6,174,4,907.649749299977,,,,,,,,,907.6350245999638,907.649749299977,908.6503645000048,908.6503645000048,908.6503645000048,910.1497675999999,space,1.492635699978564,None,910.1507214999874,910.565300166669,910.8826466999599,910.8592817999888,910.8593333999743,910.8826466999599,910.8826466999599,910.8826466999599,914.661536199972,300,1,[3.799287700036075],[3.7993029000354],,,,,01N,001,2024-11-11_22h15.18.938,INTENTIONAL_BINDING_TASK_NUTAN_KAIN_AU2220019,2024.1.5,None,2024-11-11 22h15.34.520609 +0530,
0.7,1000,exp,14,7,175,8,914.677244499966,,,,,,,,,914.6628407000098,914.677244499966,915.6763595999801,915.6763595999801,915.6926105999737,917.176877299964,space,1.4857351999962702,None,917.1775737999706,917.8912338666307,918.21478629997,918.1907061999664,918.1907795000006,918.21478629997,918.21478629997,918.21478629997,922.3868052999605,200,1,[4.193757500033826],[4.193766099982895],,,,,01N,001,2024-11-11_22h15.18.938,INTENTIONAL_BINDING_TASK_NUTAN_KAIN_AU2220019,2024.1.5,None,2024-11-11 22h15.34.520609 +0530,
0.1,400,unexp,14,8,176,0,922.4021913000033,,,,,,,,,922.3876691999612,922.4021913000033,923.4005790000083,923.4005790000083,923.4171093999757,923.7210458999616,space,0.3147972999722697,None,923.7221081999596,923.83583426668,924.1610134000075,924.1425148000126,924.142558099993,924.1610134000075,924.1610134000075,924.1610134000075,928.3143425000017,200,1,[4.169704900006764],[4.1697182999923825],,,,,01N,001,2024-11-11_22h15.18.938,INTENTIONAL_BINDING_TASK_NUTAN_KAIN_AU2220019,2024.1.5,None,2024-11-11 22h15.34.520609 +0530,
0.1,1000,exp,14,9,177,9,928.330034899991,,,,,,,,,928.3158165999921,928.330034899991,929.3301639999845,929.3301639999845,929.3301639999845,929.6488708999823,space,0.3085801999550313,None,929.6497878999799,929.7634263666735,930.0856002999935,930.0603569999803,930.0604236999643,930.0856002999935,930.0856002999935,930.0856002999935,932.144557499967,200,1,[2.0807721999590285],[2.080783399986103],,,,,01N,001,2024-11-11_22h15.18.938,INTENTIONAL_BINDING_TASK_NUTAN_KAIN_AU2220019,2024.1.5,None,2024-11-11 22h15.34.520609 +0530,
0.4,1000,exp,14,10,178,7,932.1591272999649,,,,,,,,,932.1459161000093,932.1591272999649,933.1594319000142,933.1594319000142,933.1594319000142,933.2107999,space,0.0395470000221394,None,933.2117034000112,933.6256971666628,933.9429393999744,933.9190599999856,933.9191099000163,933.9429393999744,933.9429393999744,933.9429393999744,937.0884149000049,300,1,[3.166862800018862],[3.166871700028423],,,,,01N,001,2024-11-11_22h15.18.938,INTENTIONAL_BINDING_TASK_NUTAN_KAIN_AU2220019,2024.1.5,None,2024-11-11 22h15.34.520609 +0530,
0.4,1000,exp,14,11,179,10,937.104469999962,,,,,,,,,937.0895349999773,937.104469999962,938.0870634000166,938.0870634000166,938.1041475000093,938.672337099968,space,0.5718004999798723,None,938.6732759000151,939.0872780666725,939.3987151999609,939.3791747000068,939.3792298999615,939.3987151999609,939.3987151999609,939.3987151999609,941.0354327000096,300,1,[1.654026200005319],[1.6540353000164032],,,,,01N,001,2024-11-11_22h15.18.938,INTENTIONAL_BINDING_TASK_NUTAN_KAIN_AU2220019,2024.1.5,None,2024-11-11 22h15.34.520609 +0530,
0.1,1000,exp,15,0,180,3,941.0511173999985,,,,,,,,,941.0362280000118,941.0511173999985,942.0501599999843,942.0501599999843,942.0501599999843,942.452664899989,space,0.3972479999647476,None,942.4537550999667,942.5675351666325,942.8772646000143,942.8594698999659,942.8595294000115,942.8772646000143,942.8772646000143,942.8772646000143,945.0475987999816,300,1,[2.1859335000044666],[2.185945899982471],,,,,01N,001,2024-11-11_22h15.18.938,INTENTIONAL_BINDING_TASK_NUTAN_KAIN_AU2220019,2024.1.5,None,2024-11-11 22h15.34.520609 +0530,
0.4,1000,exp,15,1,181,4,945.0627631999669,,,,,,,,,945.0485094999894,945.0627631999669,946.0632746999618,946.0632746999618,946.0632746999618,946.3658684999682,space,0.2965609999955632,None,946.3667609000113,946.7798132666542,947.0901312999777,947.0705215999624,947.0705925999791,947.0901312999777,947.0901312999777,947.0901312999777,951.5417622000095,400,1,[4.468748199986294],[4.468776999972761],,,,,01N,001,2024-11-11_22h15.18.938,INTENTIONAL_BINDING_TASK_NUTAN_KAIN_AU2220019,2024.1.5,None,2024-11-11 22h15.34.520609 +0530,
0.7,400,unexp,15,2,182,2,951.5566075000097,,,,,,,,,951.5429134999868,951.5566075000097,952.5573903999757,952.5573903999757,952.5573903999757,952.9598329999717,space,0.39975520002190024,None,952.9606390999979,953.6728979666407,953.9945895000128,953.9701204000157,953.970207699982,953.9945895000128,953.9945895000128,953.9945895000128,957.7360371999675,800,1,[3.7630877000046894],[3.763103000004776],,,,,01N,001,2024-11-11_22h15.18.938,INTENTIONAL_BINDING_TASK_NUTAN_KAIN_AU2220019,2024.1.5,None,2024-11-11 22h15.34.520609 +0530,
0.4,1000,exp,15,3,183,7,957.7506339999964,,,,,,,,,957.7371543999761,957.7506339999964,958.7513123999815,958.7513123999815,958.7513123999815,960.5512019000016,space,1.7867005000007339,None,960.5521504000062,960.9657302666494,961.2793843999971,961.2592720999965,961.2593383999774,961.2793843999971,961.2793843999971,961.2793843999971,963.496944500017,400,1,[2.2350017999997362],[2.2350118000176735],,,,,01N,001,2024-11-11_22h15.18.938,INTENTIONAL_BINDING_TASK_NUTAN_KAIN_AU2220019,2024.1.5,None,2024-11-11 22h15.34.520609 +0530,
0.7,1000,exp,15,4,184,5,963.51129699999,,,,,,,,,963.4978686000104,963.51129699999,964.5120570000145,964.5120570000145,964.5120570000145,966.5625054999837,space,2.0468258000328206,None,966.5636682999902,967.2759786666759,967.5951730000088,967.5692964000045,967.5693598999642,967.5951730000088,967.5951730000088,967.5951730000088,969.7906319999602,400,1,[2.2181909999926575],[2.2182023999630474],,,,,01N,001,2024-11-11_22h15.18.938,INTENTIONAL_BINDING_TASK_NUTAN_KAIN_AU2220019,2024.1.5,None,2024-11-11 22h15.34.520609 +0530,
0.1,1000,exp,15,5,185,9,969.8054933999665,,,,,,,,,969.7920013999683,969.8054933999665,970.8057894000085,970.8057894000085,970.8057894000085,971.557486900012,space,0.7467208000016399,None,971.5585451999796,971.6714351666781,971.9911242999951,971.9707206999883,971.9707803999772,971.9911242999951,971.9911242999951,971.9911242999951,977.9830738999881,100,1,[6.009670200000983],[6.009682600037195],,,,,01N,001,2024-11-11_22h15.18.938,INTENTIONAL_BINDING_TASK_NUTAN_KAIN_AU2220019,2024.1.5,None,2024-11-11 22h15.34.520609 +0530,
0.7,1000,exp,15,6,186,11,977.9976543000084,,,,,,,,,977.9839827999822,977.9976543000084,978.9984042000142,978.9984042000142,978.9984042000142,979.6323206999805,space,0.6236571000190452,None,979.633247299993,980.3467411666682,980.6635283000069,980.6391286000144,980.6392179999966,980.6635283000069,980.6635283000069,980.6635283000069,982.9278225000016,100,1,[2.2863276000134647],[2.286336900026072],,,,,01N,001,2024-11-11_22h15.18.938,INTENTIONAL_BINDING_TASK_NUTAN_KAIN_AU2220019,2024.1.5,None,2024-11-11 22h15.34.520609 +0530,
