reward_today,future_reward,delay,loop.thisRepN,loop.thisTrialN,loop.thisN,loop.thisIndex,thisRow.t,notes,guide.started,go_ahead.started,guidelines.started,guide.stopped,go_ahead.keys,go_ahead.rt,go_ahead.duration,task.started,fixation.started,text.started,key_resp.started,fixation.stopped,task.stopped,key_resp.keys,key_resp.rt,key_resp.duration,thank_you.started,thx.started,thank_you.stopped,participant,session,date,expName,psychopyVersion,frameRate,expStart,
,,,,,,,,,0.008327600080519915,0.028274600044824183,0.028274600044824183,15.010003000032157,space,14.955276099964976,None,,,,,,,,,,,,,02A,001,2024-11-15_11h05.28.496,DELAY_DISCOUNTING_TASK_NUTAN_KAIN_AU2220019,2024.1.5,None,2024-11-15 11h05.44.384713 +0530,
78,80,162,0,0,0,6,15.066377800074406,,,,,,,,,15.034473500098102,15.066377800074406,16.013068800093606,16.013068800093606,16.079194499994628,18.562339700059965,t,2.543783299974166,None,,,,02A,001,2024-11-15_11h05.28.496,DELAY_DISCOUNTING_TASK_NUTAN_KAIN_AU2220019,2024.1.5,None,2024-11-15 11h05.44.384713 +0530,
11,30,7,0,1,1,0,18.581197599996813,,,,,,,,,18.564634200069122,18.581197599996813,19.57631010003388,19.57631010003388,19.59261290007271,21.142336299992166,l,1.553436900023371,None,,,,02A,001,2024-11-15_11h05.28.496,DELAY_DISCOUNTING_TASK_NUTAN_KAIN_AU2220019,2024.1.5,None,2024-11-15 11h05.44.384713 +0530,
15,35,13,0,2,2,1,21.15754929999821,,,,,,,,,21.143751400057226,21.15754929999821,22.156955700018443,22.156955700018443,22.156955700018443,24.572570800082758,l,2.402800100040622,None,,,,02A,001,2024-11-15_11h05.28.496,DELAY_DISCOUNTING_TASK_NUTAN_KAIN_AU2220019,2024.1.5,None,2024-11-15 11h05.44.384713 +0530,
40,55,62,0,3,3,3,24.5898378000129,,,,,,,,,24.574369900044985,24.5898378000129,25.586640399997123,25.586640399997123,25.603071100078523,26.636758900014684,t,1.0340326000005007,None,,,,02A,001,2024-11-15_11h05.28.496,DELAY_DISCOUNTING_TASK_NUTAN_KAIN_AU2220019,2024.1.5,None,2024-11-15 11h05.44.384713 +0530,
67,75,119,0,4,4,5,26.652940900065005,,,,,,,,,26.63781620003283,26.652940900065005,27.636143600102514,27.636143600102514,27.653202600078657,31.933455200050958,t,4.2883544999640435,None,,,,02A,001,2024-11-15_11h05.28.496,DELAY_DISCOUNTING_TASK_NUTAN_KAIN_AU2220019,2024.1.5,None,2024-11-15 11h05.44.384713 +0530,
49,60,89,0,5,5,4,31.94838429999072,,,,,,,,,31.93476900004316,31.94838429999072,32.94657370005734,32.94657370005734,32.96362749999389,34.26379540003836,t,1.3083740000147372,None,,,,02A,001,2024-11-15_11h05.28.496,DELAY_DISCOUNTING_TASK_NUTAN_KAIN_AU2220019,2024.1.5,None,2024-11-15 11h05.44.384713 +0530,
27,50,21,0,6,6,2,34.27963460003957,,,,,,,,,34.26558610005304,34.27963460003957,35.2778312000446,35.2778312000446,35.29450820002239,36.17909820005298,l,0.8882261000107974,None,,,,02A,001,2024-11-15_11h05.28.496,DELAY_DISCOUNTING_TASK_NUTAN_KAIN_AU2220019,2024.1.5,None,2024-11-15 11h05.44.384713 +0530,
40,55,62,1,0,7,3,36.19451220007613,,,,,,,,,36.18066930002533,36.19451220007613,37.192542000091635,37.192542000091635,37.20933740003966,38.16140340000857,t,0.9651878000004217,None,,,,02A,001,2024-11-15_11h05.28.496,DELAY_DISCOUNTING_TASK_NUTAN_KAIN_AU2220019,2024.1.5,None,2024-11-15 11h05.44.384713 +0530,
67,75,119,1,1,8,5,38.177895500091836,,,,,,,,,38.163222300005145,38.177895500091836,39.17414530005772,39.17414530005772,39.19036860007327,39.860184199991636,t,0.6838680999353528,None,,,,02A,001,2024-11-15_11h05.28.496,DELAY_DISCOUNTING_TASK_NUTAN_KAIN_AU2220019,2024.1.5,None,2024-11-15 11h05.44.384713 +0530,
78,80,162,1,2,9,6,39.87537520006299,,,,,,,,,39.8617307000095,39.87537520006299,40.872520000091754,40.872520000091754,40.88916750007775,43.871127400081605,t,2.987711100024171,None,,,,02A,001,2024-11-15_11h05.28.496,DELAY_DISCOUNTING_TASK_NUTAN_KAIN_AU2220019,2024.1.5,None,2024-11-15 11h05.44.384713 +0530,
27,50,21,1,3,10,2,43.887494100024924,,,,,,,,,43.872790900059044,43.887494100024924,44.884757600026205,44.884757600026205,44.90231430006679,47.8343280000845,t,2.934443400008604,None,,,,02A,001,2024-11-15_11h05.28.496,DELAY_DISCOUNTING_TASK_NUTAN_KAIN_AU2220019,2024.1.5,None,2024-11-15 11h05.44.384713 +0530,
49,60,89,1,4,11,4,47.849262200063094,,,,,,,,,47.83595930004958,47.849262200063094,48.84818010008894,48.84818010008894,48.84818010008894,51.64702290005516,l,2.789789200061932,None,,,,02A,001,2024-11-15_11h05.28.496,DELAY_DISCOUNTING_TASK_NUTAN_KAIN_AU2220019,2024.1.5,None,2024-11-15 11h05.44.384713 +0530,
11,30,7,1,5,12,0,51.661749500082806,,,,,,,,,51.64857160008978,51.661749500082806,52.66049560008105,52.66049560008105,52.66049560008105,54.244373800000176,l,1.5691890000598505,None,,,,02A,001,2024-11-15_11h05.28.496,DELAY_DISCOUNTING_TASK_NUTAN_KAIN_AU2220019,2024.1.5,None,2024-11-15 11h05.44.384713 +0530,
15,35,13,1,6,13,1,54.25908980006352,,,,,,,,,54.24611659999937,54.25908980006352,55.257657800102606,55.257657800102606,55.257657800102606,56.90942979999818,l,1.6487140000099316,None,,,,02A,001,2024-11-15_11h05.28.496,DELAY_DISCOUNTING_TASK_NUTAN_KAIN_AU2220019,2024.1.5,None,2024-11-15 11h05.44.384713 +0530,
11,30,7,2,0,14,0,56.924156000022776,,,,,,,,,56.91098789998796,56.924156000022776,57.922268800088204,57.922268800088204,57.93873120006174,59.02446610003244,l,1.0954179000109434,None,,,,02A,001,2024-11-15_11h05.28.496,DELAY_DISCOUNTING_TASK_NUTAN_KAIN_AU2220019,2024.1.5,None,2024-11-15 11h05.44.384713 +0530,
27,50,21,2,1,15,2,59.072788599994965,,,,,,,,,59.02603190008085,59.072788599994965,60.03713310009334,60.03713310009334,60.086526600061916,61.13749110000208,l,1.0945747001096606,None,,,,02A,001,2024-11-15_11h05.28.496,DELAY_DISCOUNTING_TASK_NUTAN_KAIN_AU2220019,2024.1.5,None,2024-11-15 11h05.44.384713 +0530,
49,60,89,2,2,16,4,61.15441890002694,,,,,,,,,61.139117900049314,61.15441890002694,62.15064390003681,62.15064390003681,62.16761050000787,62.98713800008409,l,0.8305773999309167,None,,,,02A,001,2024-11-15_11h05.28.496,DELAY_DISCOUNTING_TASK_NUTAN_KAIN_AU2220019,2024.1.5,None,2024-11-15 11h05.44.384713 +0530,
67,75,119,2,3,17,5,63.00196380005218,,,,,,,,,62.988754100049846,63.00196380005218,63.99949529999867,63.99949529999867,64.01578410004731,65.59977830003481,t,1.5862560999812558,None,,,,02A,001,2024-11-15_11h05.28.496,DELAY_DISCOUNTING_TASK_NUTAN_KAIN_AU2220019,2024.1.5,None,2024-11-15 11h05.44.384713 +0530,
15,35,13,2,4,18,1,65.61467909999192,,,,,,,,,65.6012994000921,65.61467909999192,66.61395750008523,66.61395750008523,66.61395750008523,67.79760340007488,l,1.1689885999076068,None,,,,02A,001,2024-11-15_11h05.28.496,DELAY_DISCOUNTING_TASK_NUTAN_KAIN_AU2220019,2024.1.5,None,2024-11-15 11h05.44.384713 +0530,
40,55,62,2,5,19,3,67.81241140002385,,,,,,,,,67.79923970007803,67.81241140002385,68.81159759999719,68.81159759999719,68.81159759999719,69.79558410006575,l,0.968688299995847,None,,,,02A,001,2024-11-15_11h05.28.496,DELAY_DISCOUNTING_TASK_NUTAN_KAIN_AU2220019,2024.1.5,None,2024-11-15 11h05.44.384713 +0530,
78,80,162,2,6,20,6,69.81139340007212,,,,,,,,,69.79713290010113,69.81139340007212,70.80991619999986,70.80991619999986,70.8263605000684,71.8945957000833,l,1.0780821000225842,None,,,,02A,001,2024-11-15_11h05.28.496,DELAY_DISCOUNTING_TASK_NUTAN_KAIN_AU2220019,2024.1.5,None,2024-11-15 11h05.44.384713 +0530,
40,55,62,3,0,21,3,71.9089995000977,,,,,,,,,71.89633490005508,71.9089995000977,72.90805700002238,72.90805700002238,72.9246377000818,79.00383370008785,t,6.088869199971668,None,,,,02A,001,2024-11-15_11h05.28.496,DELAY_DISCOUNTING_TASK_NUTAN_KAIN_AU2220019,2024.1.5,None,2024-11-15 11h05.44.384713 +0530,
78,80,162,3,1,22,6,79.02092430007178,,,,,,,,,79.00551260006614,79.02092430007178,80.01734880008735,80.01734880008735,80.034092899994,81.01772240002174,t,0.9928740999894217,None,,,,02A,001,2024-11-15_11h05.28.496,DELAY_DISCOUNTING_TASK_NUTAN_KAIN_AU2220019,2024.1.5,None,2024-11-15 11h05.44.384713 +0530,
67,75,119,3,2,23,5,81.0337175000459,,,,,,,,,81.01932490000036,81.0337175000459,82.0317716000136,82.0317716000136,82.04862080002204,82.85063350002747,t,0.8126038999762386,None,,,,02A,001,2024-11-15_11h05.28.496,DELAY_DISCOUNTING_TASK_NUTAN_KAIN_AU2220019,2024.1.5,None,2024-11-15 11h05.44.384713 +0530,
27,50,21,3,3,24,2,82.86445230001118,,,,,,,,,82.85223369998857,82.86445230001118,83.8645216000732,83.8645216000732,83.8645216000732,84.76421060005669,l,0.8823224999941885,None,,,,02A,001,2024-11-15_11h05.28.496,DELAY_DISCOUNTING_TASK_NUTAN_KAIN_AU2220019,2024.1.5,None,2024-11-15 11h05.44.384713 +0530,
15,35,13,3,4,25,1,84.78010160010308,,,,,,,,,84.76597010006662,84.78010160010308,85.77769480005372,85.77769480005372,85.79518850008026,86.49669490009546,l,0.7070521001005545,None,,,,02A,001,2024-11-15_11h05.28.496,DELAY_DISCOUNTING_TASK_NUTAN_KAIN_AU2220019,2024.1.5,None,2024-11-15 11h05.44.384713 +0530,
49,60,89,3,5,26,4,86.5110435000388,,,,,,,,,86.49820130004082,86.5110435000388,87.51015700004064,87.51015700004064,87.52602510002907,88.41193709999789,l,0.8950087999692187,None,,,,02A,001,2024-11-15_11h05.28.496,DELAY_DISCOUNTING_TASK_NUTAN_KAIN_AU2220019,2024.1.5,None,2024-11-15 11h05.44.384713 +0530,
11,30,7,3,6,27,0,88.4268682000693,,,,,,,,,88.41368090000469,88.4268682000693,89.42467480001505,89.42467480001505,89.44144850003067,90.24252560001332,l,0.8098735000239685,None,,,,02A,001,2024-11-15_11h05.28.496,DELAY_DISCOUNTING_TASK_NUTAN_KAIN_AU2220019,2024.1.5,None,2024-11-15 11h05.44.384713 +0530,
40,55,62,4,0,28,3,90.25710660009645,,,,,,,,,90.24434330000076,90.25710660009645,91.25593010010198,91.25593010010198,91.25593010010198,92.55749830009881,t,1.290265200077556,None,,,,02A,001,2024-11-15_11h05.28.496,DELAY_DISCOUNTING_TASK_NUTAN_KAIN_AU2220019,2024.1.5,None,2024-11-15 11h05.44.384713 +0530,
67,75,119,4,1,29,5,92.57402600010391,,,,,,,,,92.55911180004478,92.57402600010391,93.57050370005891,93.57050370005891,93.58668250008486,94.78872350009624,t,1.216110400040634,None,,,,02A,001,2024-11-15_11h05.28.496,DELAY_DISCOUNTING_TASK_NUTAN_KAIN_AU2220019,2024.1.5,None,2024-11-15 11h05.44.384713 +0530,
15,35,13,4,2,30,1,94.80505140009336,,,,,,,,,94.79018010001164,94.80505140009336,95.80276330001652,95.80276330001652,95.8188859000802,97.2378096000757,l,1.427425600006245,None,,,,02A,001,2024-11-15_11h05.28.496,DELAY_DISCOUNTING_TASK_NUTAN_KAIN_AU2220019,2024.1.5,None,2024-11-15 11h05.44.384713 +0530,
78,80,162,4,3,31,6,97.25353270000778,,,,,,,,,97.23945110000204,97.25353270000778,98.24898260005284,98.24898260005284,98.26554280007258,99.18334890005644,t,0.9174626000458375,None,,,,02A,001,2024-11-15_11h05.28.496,DELAY_DISCOUNTING_TASK_NUTAN_KAIN_AU2220019,2024.1.5,None,2024-11-15 11h05.44.384713 +0530,
27,50,21,4,4,32,2,99.1988550000824,,,,,,,,,99.18491800001357,99.1988550000824,100.19762930006254,100.19762930006254,100.19762930006254,101.44875119999051,l,1.2443848999682814,None,,,,02A,001,2024-11-15_11h05.28.496,DELAY_DISCOUNTING_TASK_NUTAN_KAIN_AU2220019,2024.1.5,None,2024-11-15 11h05.44.384713 +0530,
11,30,7,4,5,33,0,101.46385500009637,,,,,,,,,101.4504860000452,101.46385500009637,102.46189770009369,102.46189770009369,102.47862710000481,104.77869100007229,l,2.305545400013216,None,,,,02A,001,2024-11-15_11h05.28.496,DELAY_DISCOUNTING_TASK_NUTAN_KAIN_AU2220019,2024.1.5,None,2024-11-15 11h05.44.384713 +0530,
49,60,89,4,6,34,4,104.793530200026,,,,,,,,,104.78022620000411,104.793530200026,105.79160540003795,105.79160540003795,105.8074836001033,107.29341260006186,t,1.4837813000194728,None,,,,02A,001,2024-11-15_11h05.28.496,DELAY_DISCOUNTING_TASK_NUTAN_KAIN_AU2220019,2024.1.5,None,2024-11-15 11h05.44.384713 +0530,
40,55,62,5,0,35,3,107.3082812000066,,,,,,,,,107.29502340010367,107.3082812000066,108.3065060999943,108.3065060999943,108.32255280006211,109.47360810008831,t,1.1582534000044689,None,,,,02A,001,2024-11-15_11h05.28.496,DELAY_DISCOUNTING_TASK_NUTAN_KAIN_AU2220019,2024.1.5,None,2024-11-15 11h05.44.384713 +0530,
49,60,89,5,1,36,4,109.48945630004164,,,,,,,,,109.47536550008226,109.48945630004164,110.48819810000714,110.48819810000714,110.50410200003535,111.45397800009232,t,0.9537645999807864,None,,,,02A,001,2024-11-15_11h05.28.496,DELAY_DISCOUNTING_TASK_NUTAN_KAIN_AU2220019,2024.1.5,None,2024-11-15 11h05.44.384713 +0530,
11,30,7,5,2,37,0,111.46971840003971,,,,,,,,,111.45560450002085,111.46971840003971,112.46856810001191,112.46856810001191,112.46856810001191,114.03639030002523,l,1.5654097000369802,None,,,,02A,001,2024-11-15_11h05.28.496,DELAY_DISCOUNTING_TASK_NUTAN_KAIN_AU2220019,2024.1.5,None,2024-11-15 11h05.44.384713 +0530,
67,75,119,5,3,38,5,114.05063790001441,,,,,,,,,114.03809080005158,114.05063790001441,115.04951200005598,115.04951200005598,115.06549980002455,116.01785530010238,t,0.9512443999992684,None,,,,02A,001,2024-11-15_11h05.28.496,DELAY_DISCOUNTING_TASK_NUTAN_KAIN_AU2220019,2024.1.5,None,2024-11-15 11h05.44.384713 +0530,
27,50,21,5,4,39,2,116.03324840008281,,,,,,,,,116.01985040004365,116.03324840008281,117.03132360009477,117.03132360009477,117.04748990002554,120.5289497000631,l,3.488770000054501,None,,,,02A,001,2024-11-15_11h05.28.496,DELAY_DISCOUNTING_TASK_NUTAN_KAIN_AU2220019,2024.1.5,None,2024-11-15 11h05.44.384713 +0530,
78,80,162,5,5,40,6,120.54482070007361,,,,,,,,,120.53062470001169,120.54482070007361,121.54275580006652,121.54275580006652,121.5596957000671,122.34437220008112,t,0.7858020999701694,None,,,,02A,001,2024-11-15_11h05.28.496,DELAY_DISCOUNTING_TASK_NUTAN_KAIN_AU2220019,2024.1.5,None,2024-11-15 11h05.44.384713 +0530,
15,35,13,5,6,41,1,122.3607200999977,,,,,,,,,122.34619459998794,122.3607200999977,123.35769930004608,123.35769930004608,123.37448660004884,124.14290720003191,l,0.7757924000034109,None,,,,02A,001,2024-11-15_11h05.28.496,DELAY_DISCOUNTING_TASK_NUTAN_KAIN_AU2220019,2024.1.5,None,2024-11-15 11h05.44.384713 +0530,
67,75,119,6,0,42,5,124.15770330000669,,,,,,,,,124.14458780002315,124.15770330000669,125.1558283000486,125.1558283000486,125.17302570003085,125.80695960007142,t,0.6430867000017315,None,,,,02A,001,2024-11-15_11h05.28.496,DELAY_DISCOUNTING_TASK_NUTAN_KAIN_AU2220019,2024.1.5,None,2024-11-15 11h05.44.384713 +0530,
15,35,13,6,1,43,1,125.82432320003863,,,,,,,,,125.80851660005283,125.82432320003863,126.82142030005343,126.82142030005343,126.83701910008676,128.1891424000496,l,1.3519863999681547,None,,,,02A,001,2024-11-15_11h05.28.496,DELAY_DISCOUNTING_TASK_NUTAN_KAIN_AU2220019,2024.1.5,None,2024-11-15 11h05.44.384713 +0530,
11,30,7,6,2,44,0,128.2039788000984,,,,,,,,,128.19072320009582,128.2039788000984,129.20264790009242,129.20264790009242,129.20264790009242,132.85077380004805,l,3.641061699949205,None,,,,02A,001,2024-11-15_11h05.28.496,DELAY_DISCOUNTING_TASK_NUTAN_KAIN_AU2220019,2024.1.5,None,2024-11-15 11h05.44.384713 +0530,
27,50,21,6,3,45,2,132.8678517000517,,,,,,,,,132.85247650009114,132.8678517000517,133.8637313999934,133.8637313999934,133.88088790001348,135.03187390009407,l,1.1596783000277355,None,,,,02A,001,2024-11-15_11h05.28.496,DELAY_DISCOUNTING_TASK_NUTAN_KAIN_AU2220019,2024.1.5,None,2024-11-15 11h05.44.384713 +0530,
40,55,62,6,4,46,3,135.04819620004855,,,,,,,,,135.0334927000804,135.04819620004855,136.04573050001636,136.04573050001636,136.06238910008688,138.3611785999965,t,2.303012999938801,None,,,,02A,001,2024-11-15_11h05.28.496,DELAY_DISCOUNTING_TASK_NUTAN_KAIN_AU2220019,2024.1.5,None,2024-11-15 11h05.44.384713 +0530,
49,60,89,6,5,47,4,138.37608680000994,,,,,,,,,138.3628404000774,138.37608680000994,139.37537980009802,139.37537980009802,139.37537980009802,140.16125720005948,t,0.783101600012742,None,,,,02A,001,2024-11-15_11h05.28.496,DELAY_DISCOUNTING_TASK_NUTAN_KAIN_AU2220019,2024.1.5,None,2024-11-15 11h05.44.384713 +0530,
78,80,162,6,6,48,6,140.1775789000094,,,,,,,,,140.1629676000448,140.1775789000094,141.17385940009262,141.17385940009262,141.19060930004343,141.7428532000631,t,0.5633790999418125,None,,,,02A,001,2024-11-15_11h05.28.496,DELAY_DISCOUNTING_TASK_NUTAN_KAIN_AU2220019,2024.1.5,None,2024-11-15 11h05.44.384713 +0530,
11,30,7,7,0,49,0,141.75796429999173,,,,,,,,,141.7445895000128,141.75796429999173,142.75547870004084,142.75547870004084,142.7724220000673,154.21334170002956,l,11.44184139999561,None,,,,02A,001,2024-11-15_11h05.28.496,DELAY_DISCOUNTING_TASK_NUTAN_KAIN_AU2220019,2024.1.5,None,2024-11-15 11h05.44.384713 +0530,
67,75,119,7,1,50,5,154.23014920006972,,,,,,,,,154.2154991000425,154.23014920006972,155.22727900010068,155.22727900010068,155.2441554000834,157.22666949999984,t,1.9817944000242278,None,,,,02A,001,2024-11-15_11h05.28.496,DELAY_DISCOUNTING_TASK_NUTAN_KAIN_AU2220019,2024.1.5,None,2024-11-15 11h05.44.384713 +0530,
27,50,21,7,2,51,2,157.24132610007655,,,,,,,,,157.22826740005985,157.24132610007655,158.2410313000437,158.2410313000437,158.2410313000437,159.45731800002977,l,1.2033086000010371,None,,,,02A,001,2024-11-15_11h05.28.496,DELAY_DISCOUNTING_TASK_NUTAN_KAIN_AU2220019,2024.1.5,None,2024-11-15 11h05.44.384713 +0530,
40,55,62,7,3,52,3,159.4739142000908,,,,,,,,,159.45845330005977,159.4739142000908,160.47194910002872,160.47194910002872,160.4884329000488,161.22370530001353,t,0.7462976999813691,None,,,,02A,001,2024-11-15_11h05.28.496,DELAY_DISCOUNTING_TASK_NUTAN_KAIN_AU2220019,2024.1.5,None,2024-11-15 11h05.44.384713 +0530,
15,35,13,7,4,53,1,161.23969010007568,,,,,,,,,161.2254086000612,161.23969010007568,162.23651509999763,162.23651509999763,162.25299860001542,164.1531965000322,l,1.9078439000295475,None,,,,02A,001,2024-11-15_11h05.28.496,DELAY_DISCOUNTING_TASK_NUTAN_KAIN_AU2220019,2024.1.5,None,2024-11-15 11h05.44.384713 +0530,
49,60,89,7,5,54,4,164.16849280009046,,,,,,,,,164.15487200010102,164.16849280009046,165.16674880008213,165.16674880008213,165.18379810010083,166.00168190000113,t,0.8216532000806183,None,,,,02A,001,2024-11-15_11h05.28.496,DELAY_DISCOUNTING_TASK_NUTAN_KAIN_AU2220019,2024.1.5,None,2024-11-15 11h05.44.384713 +0530,
78,80,162,7,6,55,6,166.016873100074,,,,,,,,,166.0031901000766,166.016873100074,167.01512120000552,167.01512120000552,167.03150570008438,169.06487500004005,t,2.0426435000263155,None,,,,02A,001,2024-11-15_11h05.28.496,DELAY_DISCOUNTING_TASK_NUTAN_KAIN_AU2220019,2024.1.5,None,2024-11-15 11h05.44.384713 +0530,
27,50,21,8,0,56,2,169.08082410006318,,,,,,,,,169.06654100003652,169.08082410006318,170.0789418000495,170.0789418000495,170.09550799999852,171.3475882000057,l,1.264724800013937,None,,,,02A,001,2024-11-15_11h05.28.496,DELAY_DISCOUNTING_TASK_NUTAN_KAIN_AU2220019,2024.1.5,None,2024-11-15 11h05.44.384713 +0530,
67,75,119,8,1,57,5,171.363999000052,,,,,,,,,171.34965870005544,171.363999000052,172.36095500004012,172.36095500004012,172.37669970002025,172.99583230004646,t,0.628427300020121,None,,,,02A,001,2024-11-15_11h05.28.496,DELAY_DISCOUNTING_TASK_NUTAN_KAIN_AU2220019,2024.1.5,None,2024-11-15 11h05.44.384713 +0530,
11,30,7,8,2,58,0,173.01060400006827,,,,,,,,,172.99734720005654,173.01060400006827,174.00815230002627,174.00815230002627,174.02521170000546,175.12458470009733,l,1.1081100000301376,None,,,,02A,001,2024-11-15_11h05.28.496,DELAY_DISCOUNTING_TASK_NUTAN_KAIN_AU2220019,2024.1.5,None,2024-11-15 11h05.44.384713 +0530,
78,80,162,8,3,59,6,175.14036130008753,,,,,,,,,175.12623809999786,175.14036130008753,176.14047149999533,176.14047149999533,176.14047149999533,177.10732140007894,t,0.9514727999921888,None,,,,02A,001,2024-11-15_11h05.28.496,DELAY_DISCOUNTING_TASK_NUTAN_KAIN_AU2220019,2024.1.5,None,2024-11-15 11h05.44.384713 +0530,
40,55,62,8,4,60,3,177.1235374000389,,,,,,,,,177.10887960006949,177.1235374000389,178.12064570002258,178.12064570002258,178.1376825000625,179.2893205001019,t,1.1621577000478283,None,,,,02A,001,2024-11-15_11h05.28.496,DELAY_DISCOUNTING_TASK_NUTAN_KAIN_AU2220019,2024.1.5,None,2024-11-15 11h05.44.384713 +0530,
49,60,89,8,5,61,4,179.3039491000818,,,,,,,,,179.29082250001375,179.3039491000818,180.30197330005467,180.30197330005467,180.31774600001518,182.28495380003005,t,1.969962100032717,None,,,,02A,001,2024-11-15_11h05.28.496,DELAY_DISCOUNTING_TASK_NUTAN_KAIN_AU2220019,2024.1.5,None,2024-11-15 11h05.44.384713 +0530,
15,35,13,8,6,62,1,182.3000791000668,,,,,,,,,182.28670950001106,182.3000791000668,183.29982900002506,183.29982900002506,183.29982900002506,184.25148400000762,l,0.9496805999660864,None,,,,02A,001,2024-11-15_11h05.28.496,DELAY_DISCOUNTING_TASK_NUTAN_KAIN_AU2220019,2024.1.5,None,2024-11-15 11h05.44.384713 +0530,
15,35,13,9,0,63,1,184.26459100004286,,,,,,,,,184.25310800003354,184.26459100004286,185.2646129000932,185.2646129000932,185.2646129000932,193.42509220005013,l,8.15814220008906,None,,,,02A,001,2024-11-15_11h05.28.496,DELAY_DISCOUNTING_TASK_NUTAN_KAIN_AU2220019,2024.1.5,None,2024-11-15 11h05.44.384713 +0530,
78,80,162,9,1,64,6,193.43964440003037,,,,,,,,,193.42667070007883,193.43964440003037,194.43834800005425,194.43834800005425,194.45480559999123,195.22446410008706,t,0.7789386999793351,None,,,,02A,001,2024-11-15_11h05.28.496,DELAY_DISCOUNTING_TASK_NUTAN_KAIN_AU2220019,2024.1.5,None,2024-11-15 11h05.44.384713 +0530,
11,30,7,9,2,65,0,195.23964980000164,,,,,,,,,195.22605400008615,195.23964980000164,196.23684940009844,196.23684940009844,196.25339470000472,196.93856250005774,l,0.6983184000710025,None,,,,02A,001,2024-11-15_11h05.28.496,DELAY_DISCOUNTING_TASK_NUTAN_KAIN_AU2220019,2024.1.5,None,2024-11-15 11h05.44.384713 +0530,
27,50,21,9,3,66,2,196.9536836000625,,,,,,,,,196.94027730007656,196.9536836000625,197.9524054999929,197.9524054999929,197.968915100093,198.75431680004112,l,0.7952672999817878,None,,,,02A,001,2024-11-15_11h05.28.496,DELAY_DISCOUNTING_TASK_NUTAN_KAIN_AU2220019,2024.1.5,None,2024-11-15 11h05.44.384713 +0530,
67,75,119,9,4,67,5,198.76963120000437,,,,,,,,,198.75600600009784,198.76963120000437,199.76594180008397,199.76594180008397,199.78279630001634,200.70131050003693,t,0.9273059999104589,None,,,,02A,001,2024-11-15_11h05.28.496,DELAY_DISCOUNTING_TASK_NUTAN_KAIN_AU2220019,2024.1.5,None,2024-11-15 11h05.44.384713 +0530,
40,55,62,9,5,68,3,200.71633180009667,,,,,,,,,200.70293060003314,200.71633180009667,201.7142063000938,201.7142063000938,201.73147110000718,202.54980889998842,t,0.8293100000591949,None,,,,02A,001,2024-11-15_11h05.28.496,DELAY_DISCOUNTING_TASK_NUTAN_KAIN_AU2220019,2024.1.5,None,2024-11-15 11h05.44.384713 +0530,
49,60,89,9,6,69,4,202.56598080007825,,,,,,,,,202.5509255999932,202.56598080007825,203.56244020001031,203.56244020001031,203.57932820008136,204.39772430004086,t,0.8174240998923779,None,,,,02A,001,2024-11-15_11h05.28.496,DELAY_DISCOUNTING_TASK_NUTAN_KAIN_AU2220019,2024.1.5,None,2024-11-15 11h05.44.384713 +0530,
49,60,89,10,0,70,4,204.41183610004373,,,,,,,,,204.39942050003447,204.41183610004373,205.410816000076,205.410816000076,205.410816000076,208.24297280004248,t,2.8157080999808386,None,,,,02A,001,2024-11-15_11h05.28.496,DELAY_DISCOUNTING_TASK_NUTAN_KAIN_AU2220019,2024.1.5,None,2024-11-15 11h05.44.384713 +0530,
15,35,13,10,1,71,1,208.2579388000304,,,,,,,,,208.24456890008878,208.2579388000304,209.25763940007892,209.25763940007892,209.25763940007892,211.25838340003975,l,1.9985570999560878,None,,,,02A,001,2024-11-15_11h05.28.496,DELAY_DISCOUNTING_TASK_NUTAN_KAIN_AU2220019,2024.1.5,None,2024-11-15 11h05.44.384713 +0530,
11,30,7,10,2,72,0,211.2740127000725,,,,,,,,,211.25984549999703,211.2740127000725,212.27071459998842,212.27071459998842,212.28742190008052,213.4216846000636,l,1.1487511999439448,None,,,,02A,001,2024-11-15_11h05.28.496,DELAY_DISCOUNTING_TASK_NUTAN_KAIN_AU2220019,2024.1.5,None,2024-11-15 11h05.44.384713 +0530,
67,75,119,10,3,73,5,213.43651110003702,,,,,,,,,213.423060500063,213.43651110003702,214.4353937000269,214.4353937000269,214.45170420000795,233.86839580000378,t,19.430751999956556,None,,,,02A,001,2024-11-15_11h05.28.496,DELAY_DISCOUNTING_TASK_NUTAN_KAIN_AU2220019,2024.1.5,None,2024-11-15 11h05.44.384713 +0530,
78,80,162,10,4,74,6,233.88389160006773,,,,,,,,,233.86979660007637,233.88389160006773,234.88164919998962,234.88164919998962,234.8982600000454,235.3849879000336,t,0.4963635999010876,None,,,,02A,001,2024-11-15_11h05.28.496,DELAY_DISCOUNTING_TASK_NUTAN_KAIN_AU2220019,2024.1.5,None,2024-11-15 11h05.44.384713 +0530,
40,55,62,10,5,75,3,235.39946069999132,,,,,,,,,235.38656790007371,235.39946069999132,236.3969607000472,236.3969607000472,236.41356120002456,240.51197370002046,t,4.109222099999897,None,,,,02A,001,2024-11-15_11h05.28.496,DELAY_DISCOUNTING_TASK_NUTAN_KAIN_AU2220019,2024.1.5,None,2024-11-15 11h05.44.384713 +0530,
27,50,21,10,6,76,2,240.5274615000235,,,,,,,,,240.51351790002082,240.5274615000235,241.52630510006566,241.52630510006566,241.5415295000421,242.26055020000786,l,0.724726999993436,None,,,,02A,001,2024-11-15_11h05.28.496,DELAY_DISCOUNTING_TASK_NUTAN_KAIN_AU2220019,2024.1.5,None,2024-11-15 11h05.44.384713 +0530,
15,35,13,11,0,77,1,242.2750878999941,,,,,,,,,242.26215980004054,242.2750878999941,243.27390010003,243.27390010003,243.29045800003223,244.29124630009755,l,1.0047059000935405,None,,,,02A,001,2024-11-15_11h05.28.496,DELAY_DISCOUNTING_TASK_NUTAN_KAIN_AU2220019,2024.1.5,None,2024-11-15 11h05.44.384713 +0530,
49,60,89,11,1,78,4,244.3060497000115,,,,,,,,,244.29284000000916,244.3060497000115,245.30443090002518,245.30443090002518,245.30443090002518,246.008354300051,t,0.6980842999182642,None,,,,02A,001,2024-11-15_11h05.28.496,DELAY_DISCOUNTING_TASK_NUTAN_KAIN_AU2220019,2024.1.5,None,2024-11-15 11h05.44.384713 +0530,
67,75,119,11,2,79,5,246.02533520001452,,,,,,,,,246.009866300039,246.02533520001452,247.02015930006746,247.02015930006746,247.03653460007627,248.0044302000897,t,0.9733331999741495,None,,,,02A,001,2024-11-15_11h05.28.496,DELAY_DISCOUNTING_TASK_NUTAN_KAIN_AU2220019,2024.1.5,None,2024-11-15 11h05.44.384713 +0530,
27,50,21,11,3,80,2,248.0203838000307,,,,,,,,,248.00617820001207,248.0203838000307,249.01807190000545,249.01807190000545,249.03480860008858,249.78606350009795,l,0.7616094000404701,None,,,,02A,001,2024-11-15_11h05.28.496,DELAY_DISCOUNTING_TASK_NUTAN_KAIN_AU2220019,2024.1.5,None,2024-11-15 11h05.44.384713 +0530,
78,80,162,11,4,81,6,249.8027996000601,,,,,,,,,249.7883034000406,249.8027996000601,250.7996967000654,250.7996967000654,250.81636270007584,257.0112851000158,t,6.196351100108586,None,,,,02A,001,2024-11-15_11h05.28.496,DELAY_DISCOUNTING_TASK_NUTAN_KAIN_AU2220019,2024.1.5,None,2024-11-15 11h05.44.384713 +0530,
40,55,62,11,5,82,3,257.027080400032,,,,,,,,,257.0128458000254,257.027080400032,258.0262493999908,258.0262493999908,258.0262493999908,258.644607400056,t,0.6163729999680072,None,,,,02A,001,2024-11-15_11h05.28.496,DELAY_DISCOUNTING_TASK_NUTAN_KAIN_AU2220019,2024.1.5,None,2024-11-15 11h05.44.384713 +0530,
11,30,7,11,6,83,0,258.65853390004486,,,,,,,,,258.6460244000191,258.65853390004486,259.65818670007866,259.65818670007866,259.65818670007866,260.5930494000204,l,0.9283603000221774,None,,,,02A,001,2024-11-15_11h05.28.496,DELAY_DISCOUNTING_TASK_NUTAN_KAIN_AU2220019,2024.1.5,None,2024-11-15 11h05.44.384713 +0530,
40,55,62,12,0,84,3,260.6106729999883,,,,,,,,,260.59497340000235,260.6106729999883,261.6056863000849,261.6056863000849,261.62198310007807,262.2070924000582,t,0.5846647000871599,None,,,,02A,001,2024-11-15_11h05.28.496,DELAY_DISCOUNTING_TASK_NUTAN_KAIN_AU2220019,2024.1.5,None,2024-11-15 11h05.44.384713 +0530,
11,30,7,12,1,85,0,262.22348919999786,,,,,,,,,262.208783900016,262.22348919999786,263.22106080001686,263.22106080001686,263.23720430000685,263.9710596000077,l,0.7398713000584394,None,,,,02A,001,2024-11-15_11h05.28.496,DELAY_DISCOUNTING_TASK_NUTAN_KAIN_AU2220019,2024.1.5,None,2024-11-15 11h05.44.384713 +0530,
15,35,13,12,2,86,1,263.9867366000544,,,,,,,,,263.9727978000883,263.9867366000544,264.9867644000333,264.9867644000333,264.9867644000333,265.7381630000891,l,0.7474471000023186,None,,,,02A,001,2024-11-15_11h05.28.496,DELAY_DISCOUNTING_TASK_NUTAN_KAIN_AU2220019,2024.1.5,None,2024-11-15 11h05.44.384713 +0530,
78,80,162,12,3,87,6,265.7544824000215,,,,,,,,,265.7398052000208,265.7544824000215,266.75113910005894,266.75113910005894,266.7676725999918,271.115128000034,t,4.355758999940008,None,,,,02A,001,2024-11-15_11h05.28.496,DELAY_DISCOUNTING_TASK_NUTAN_KAIN_AU2220019,2024.1.5,None,2024-11-15 11h05.44.384713 +0530,
67,75,119,12,4,88,5,271.1310571000213,,,,,,,,,271.11694030009676,271.1310571000213,272.12894260010216,272.12894260010216,272.1455995000433,272.81344180007,t,0.6762110000709072,None,,,,02A,001,2024-11-15_11h05.28.496,DELAY_DISCOUNTING_TASK_NUTAN_KAIN_AU2220019,2024.1.5,None,2024-11-15 11h05.44.384713 +0530,
27,50,21,12,5,89,2,272.8285679999972,,,,,,,,,272.81502510001883,272.8285679999972,273.82826560002286,273.82826560002286,273.84419279999565,274.76112999999896,l,0.9240672999294475,None,,,,02A,001,2024-11-15_11h05.28.496,DELAY_DISCOUNTING_TASK_NUTAN_KAIN_AU2220019,2024.1.5,None,2024-11-15 11h05.44.384713 +0530,
49,60,89,12,6,90,4,274.7777895000763,,,,,,,,,274.76285729999654,274.7777895000763,275.77501330000814,275.77501330000814,275.79182790010236,276.3772553000599,t,0.5846833999967203,None,,,,02A,001,2024-11-15_11h05.28.496,DELAY_DISCOUNTING_TASK_NUTAN_KAIN_AU2220019,2024.1.5,None,2024-11-15 11h05.44.384713 +0530,
40,55,62,13,0,91,3,276.3925411000382,,,,,,,,,276.37881460005883,276.3925411000382,277.3900934000267,277.3900934000267,277.4068676000461,278.0754500000039,t,0.6827095000771806,None,,,,02A,001,2024-11-15_11h05.28.496,DELAY_DISCOUNTING_TASK_NUTAN_KAIN_AU2220019,2024.1.5,None,2024-11-15 11h05.44.384713 +0530,
49,60,89,13,1,92,4,278.09307800000533,,,,,,,,,278.07708870002534,278.09307800000533,279.08847320009954,279.08847320009954,279.1048092000419,279.70740449998993,t,0.6161065000342205,None,,,,02A,001,2024-11-15_11h05.28.496,DELAY_DISCOUNTING_TASK_NUTAN_KAIN_AU2220019,2024.1.5,None,2024-11-15 11h05.44.384713 +0530,
11,30,7,13,2,93,0,279.7233157000737,,,,,,,,,279.7093521000352,279.7233157000737,280.72142740001436,280.72142740001436,280.7380386000732,281.9547821000451,l,1.2162362000672147,None,,,,02A,001,2024-11-15_11h05.28.496,DELAY_DISCOUNTING_TASK_NUTAN_KAIN_AU2220019,2024.1.5,None,2024-11-15 11h05.44.384713 +0530,
67,75,119,13,3,94,5,281.9710974000627,,,,,,,,,281.9563739000587,281.9710974000627,282.96907480002847,282.96907480002847,282.98436040000524,284.21925980004016,t,1.2442888000514358,None,,,,02A,001,2024-11-15_11h05.28.496,DELAY_DISCOUNTING_TASK_NUTAN_KAIN_AU2220019,2024.1.5,None,2024-11-15 11h05.44.384713 +0530,
15,35,13,13,4,95,1,284.23411070008297,,,,,,,,,284.2209091000259,284.23411070008297,285.2324476999929,285.2324476999929,285.2324476999929,287.24935870000627,l,2.0047676999820396,None,,,,02A,001,2024-11-15_11h05.28.496,DELAY_DISCOUNTING_TASK_NUTAN_KAIN_AU2220019,2024.1.5,None,2024-11-15 11h05.44.384713 +0530,
27,50,21,13,5,96,2,287.26620489999186,,,,,,,,,287.2508090999909,287.26620489999186,288.26342229999136,288.26342229999136,288.2800777000375,290.0971337000374,l,1.8246616000542417,None,,,,02A,001,2024-11-15_11h05.28.496,DELAY_DISCOUNTING_TASK_NUTAN_KAIN_AU2220019,2024.1.5,None,2024-11-15 11h05.44.384713 +0530,
78,80,162,13,6,97,6,290.11114950000774,,,,,,,,,290.0981468000682,290.11114950000774,291.1110493000597,291.1110493000597,291.1110493000597,292.2104043000145,t,1.0884032000321895,None,,,,02A,001,2024-11-15_11h05.28.496,DELAY_DISCOUNTING_TASK_NUTAN_KAIN_AU2220019,2024.1.5,None,2024-11-15 11h05.44.384713 +0530,
,,,,,,,,,,,,,,,,,,,,,,,,,292.211241699988,292.22617120004725,295.22360070003197,02A,001,2024-11-15_11h05.28.496,DELAY_DISCOUNTING_TASK_NUTAN_KAIN_AU2220019,2024.1.5,None,2024-11-15 11h05.44.384713 +0530,
