loop_1.thisRepN,loop_1.thisTrialN,loop_1.thisN,loop_1.thisIndex,loop_2.thisRepN,loop_2.thisTrialN,loop_2.thisN,loop_2.thisIndex,thisRow.t,notes,guidelines.started,text.started,key_resp.started,guidelines.stopped,key_resp.keys,key_resp.rt,key_resp.duration,find_1.started,text_2.started,find_image_1.started,key_resp_2.started,find_1.stopped,key_resp_2.keys,key_resp_2.rt,key_resp_2.duration,baseline_sa.started,subtle_anger.started,n_1.started,n_2.started,n_3.started,n_4.started,n_5.started,n_6.started,mouse_resp.started,fix_1.started,baseline_sa.stopped,mouse_resp.x,mouse_resp.y,mouse_resp.leftButton,mouse_resp.midButton,mouse_resp.rightButton,mouse_resp.time,mouse_resp.corr,mouse_resp.clicked_name,main_sa.started,subtle_anger_main.started,mouse_resp_4.started,d_1.started,d_2.started,d_3.started,s_1.started,s_2.started,s_3.started,fix_2.started,main_sa.stopped,mouse_resp_4.x,mouse_resp_4.y,mouse_resp_4.leftButton,mouse_resp_4.midButton,mouse_resp_4.rightButton,mouse_resp_4.time,mouse_resp_4.corr,mouse_resp_4.clicked_name,find_3.started,text_4.started,key_resp_4.started,find_image__.started,find_3.stopped,key_resp_4.keys,key_resp_4.rt,key_resp_4.duration,baseline_ca.started,clear_anger.started,n_7.started,n_8.started,n_9.started,n_10.started,n_11.started,n_12.started,mouse_resp_3.started,fix_3.started,baseline_ca.stopped,mouse_resp_3.x,mouse_resp_3.y,mouse_resp_3.leftButton,mouse_resp_3.midButton,mouse_resp_3.rightButton,mouse_resp_3.time,mouse_resp_3.corr,mouse_resp_3.clicked_name,main_ca.started,clear_anger_main.started,mouse_resp_5.started,d_4.started,d_5.started,d_6.started,s_4.started,s_5.started,s_6.started,fix_4.started,main_ca.stopped,mouse_resp_5.x,mouse_resp_5.y,mouse_resp_5.leftButton,mouse_resp_5.midButton,mouse_resp_5.rightButton,mouse_resp_5.time,mouse_resp_5.corr,mouse_resp_5.clicked_name,thank_you.started,thanks.started,thank_you.stopped,participant,session,date,expName,psychopyVersion,frameRate,expStart,
,,,,,,,,,,0.004146599967498332,0.023917899990919977,0.023917899990919977,15.652726800006349,space,15.616901200031862,None,,,,,,,,,,,,,,,,,,,,,,,,,,,,,,,,,,,,,,,,,,,,,,,,,,,,,,,,,,,,,,,,,,,,,,,,,,,,,,,,,,,,,,,,,,,,,,,,01R,001,2024-12-03_19h46.38.250,SOLO_PROJECT_EXPERIMENT_NUTAN_KAIN_AU2220019,2024.1.5,None,2024-12-03 19h47.10.608187 +0530,
,,,,,,,,,,,,,,,,,15.652791799977422,15.712649499997497,15.712649499997497,15.712649499997497,26.466241499991156,space,10.74877020000713,None,,,,,,,,,,,,,,,,,,,,,,,,,,,,,,,,,,,,,,,,,,,,,,,,,,,,,,,,,,,,,,,,,,,,,,,,,,,,,,,,,,,,,,,,01R,001,2024-12-03_19h46.38.250,SOLO_PROJECT_EXPERIMENT_NUTAN_KAIN_AU2220019,2024.1.5,None,2024-12-03 19h47.10.608187 +0530,
0,0,0,0,,,,,26.758080600004178,,,,,,,,,,,,,,,,,26.468203699972946,26.758080600004178,26.758080600004178,26.758080600004178,26.758080600004178,26.758080600004178,26.758080600004178,26.758080600004178,0.002813400002196431,26.758080600004178,29.11486099998001,[-0.17578125],[0.19661458333333334],[1],[0],[0],[2.644872699980624],[1],['subtle_anger'],29.11772059998475,29.28603389998898,0.0008455999777652323,29.28603389998898,29.28603389998898,29.28603389998898,29.28603389998898,29.28603389998898,29.28603389998898,29.28603389998898,31.87918119999813,[-0.1171875],[0.08333333333333333],[1],[0],[0],[2.7598338999669068],[1],['subtle_anger_main'],,,,,,,,,,,,,,,,,,,,,,,,,,,,,,,,,,,,,,,,,,,,,,,,,,01R,001,2024-12-03_19h46.38.250,SOLO_PROJECT_EXPERIMENT_NUTAN_KAIN_AU2220019,2024.1.5,None,2024-12-03 19h47.10.608187 +0530,
1,0,1,0,,,,,31.892947599990293,,,,,,,,,,,,,,,,,31.88211649999721,31.892947599990293,31.892947599990293,31.892947599990293,31.892947599990293,31.892947599990293,31.892947599990293,31.892947599990293,0.0011332000140100718,31.892947599990293,33.859585399972275,[-0.4440104166666667],[-0.3307291666666667],[1],[0],[0],[1.9761029999936],[1],['subtle_anger'],33.86101360002067,33.87421079998603,0.0006526999641209841,33.87421079998603,33.87421079998603,33.87421079998603,33.87421079998603,33.87421079998603,33.87421079998603,33.87421079998603,36.22397579997778,[0.2864583333333333],[0.17578125],[1],[0],[0],[2.3615741999819875],[],[],,,,,,,,,,,,,,,,,,,,,,,,,,,,,,,,,,,,,,,,,,,,,,,,,,01R,001,2024-12-03_19h46.38.250,SOLO_PROJECT_EXPERIMENT_NUTAN_KAIN_AU2220019,2024.1.5,None,2024-12-03 19h47.10.608187 +0530,
2,0,2,0,,,,,36.238586299994495,,,,,,,,,,,,,,,,,36.225398499984294,36.238586299994495,36.238586299994495,36.238586299994495,36.238586299994495,36.238586299994495,36.238586299994495,36.238586299994495,0.000887200003489852,36.238586299994495,37.93953470000997,[0.059895833333333336],[0.3671875],[1],[0],[0],[1.7128587000188418],[1],['subtle_anger'],37.94097579998197,37.9534972999827,0.0007194000063464046,37.9534972999827,37.9534972999827,37.9534972999827,37.9534972999827,37.9534972999827,37.9534972999827,37.9534972999827,39.7872407999821,[0.48046875],[-0.41015625],[1],[0],[0],[1.8449757999624126],[1],['subtle_anger_main'],,,,,,,,,,,,,,,,,,,,,,,,,,,,,,,,,,,,,,,,,,,,,,,,,,01R,001,2024-12-03_19h46.38.250,SOLO_PROJECT_EXPERIMENT_NUTAN_KAIN_AU2220019,2024.1.5,None,2024-12-03 19h47.10.608187 +0530,
3,0,3,0,,,,,39.80176619999111,,,,,,,,,,,,,,,,,39.78909079998266,39.80176619999111,39.80176619999111,39.80176619999111,39.80176619999111,39.80176619999111,39.80176619999111,39.80176619999111,0.0009914000402204692,39.80176619999111,41.119114900007844,[0.11328125],[0.4010416666666667],[1],[0],[0],[1.3287104000337422],[1],['subtle_anger'],41.120334499981254,41.13391039997805,0.0005542000290006399,41.13391039997805,41.13391039997805,41.13391039997805,41.13391039997805,41.13391039997805,41.13391039997805,41.13391039997805,43.416491299984045,[-0.3854166666666667],[0.13020833333333334],[1],[0],[0],[2.2949820999638177],[1],['subtle_anger_main'],,,,,,,,,,,,,,,,,,,,,,,,,,,,,,,,,,,,,,,,,,,,,,,,,,01R,001,2024-12-03_19h46.38.250,SOLO_PROJECT_EXPERIMENT_NUTAN_KAIN_AU2220019,2024.1.5,None,2024-12-03 19h47.10.608187 +0530,
4,0,4,0,,,,,43.43170189997181,,,,,,,,,,,,,,,,,43.41872840002179,43.43170189997181,43.43170189997181,43.43170189997181,43.43170189997181,43.43170189997181,43.43170189997181,43.43170189997181,0.0011993000516667962,43.43170189997181,45.431827099993825,[-0.3125],[0.38671875],[1],[0],[0],[2.011396199988667],[1],['subtle_anger'],45.43346889998065,45.44596460001776,0.0006363000138662755,45.44596460001776,45.44596460001776,45.44596460001776,45.44596460001776,45.44596460001776,45.44596460001776,45.44596460001776,47.030942799989134,[0.055989583333333336],[0.3736979166666667],[1],[0],[0],[1.5960871999850497],[1],['subtle_anger_main'],,,,,,,,,,,,,,,,,,,,,,,,,,,,,,,,,,,,,,,,,,,,,,,,,,01R,001,2024-12-03_19h46.38.250,SOLO_PROJECT_EXPERIMENT_NUTAN_KAIN_AU2220019,2024.1.5,None,2024-12-03 19h47.10.608187 +0530,
5,0,5,0,,,,,47.044674000004306,,,,,,,,,,,,,,,,,47.03335360001074,47.044674000004306,47.044674000004306,47.044674000004306,47.044674000004306,47.044674000004306,47.044674000004306,47.044674000004306,0.0014208999928086996,47.044674000004306,48.24635719996877,[0.20182291666666666],[0.37109375],[1],[0],[0],[1.2111423999886028],[1],['subtle_anger'],48.24794839997776,48.26025870000012,0.0005688000237569213,48.26025870000012,48.26025870000012,48.26025870000012,48.26025870000012,48.26025870000012,48.26025870000012,48.26025870000012,50.276758099964354,[0.2890625],[-0.36328125],[1],[0],[0],[2.02764380001463],[1],['subtle_anger_main'],,,,,,,,,,,,,,,,,,,,,,,,,,,,,,,,,,,,,,,,,,,,,,,,,,01R,001,2024-12-03_19h46.38.250,SOLO_PROJECT_EXPERIMENT_NUTAN_KAIN_AU2220019,2024.1.5,None,2024-12-03 19h47.10.608187 +0530,
6,0,6,0,,,,,50.29142059996957,,,,,,,,,,,,,,,,,50.27875810000114,50.29142059996957,50.29142059996957,50.29142059996957,50.29142059996957,50.29142059996957,50.29142059996957,50.29142059996957,0.0009448999771848321,50.29142059996957,51.55948769999668,[0.2838541666666667],[0.13151041666666666],[1],[0],[0],[1.279416199948173],[1],['subtle_anger'],51.56109510001261,51.573547400010284,0.0007711999933235347,51.573547400010284,51.573547400010284,51.573547400010284,51.573547400010284,51.573547400010284,51.573547400010284,51.573547400010284,54.43979410000611,[-0.2526041666666667],[-0.22786458333333334],[1],[0],[0],[2.8771990000386722],[1],['subtle_anger_main'],,,,,,,,,,,,,,,,,,,,,,,,,,,,,,,,,,,,,,,,,,,,,,,,,,01R,001,2024-12-03_19h46.38.250,SOLO_PROJECT_EXPERIMENT_NUTAN_KAIN_AU2220019,2024.1.5,None,2024-12-03 19h47.10.608187 +0530,
7,0,7,0,,,,,54.454046199971344,,,,,,,,,,,,,,,,,54.44204300001729,54.454046199971344,54.454046199971344,54.454046199971344,54.454046199971344,54.454046199971344,54.454046199971344,54.454046199971344,0.0010227999882772565,54.454046199971344,56.006705300009344,[0.22395833333333334],[0.3385416666666667],[1],[0],[0],[1.5631066000205465],[1],['subtle_anger'],56.00831329997163,56.01995200000238,0.0007437999593093991,56.01995200000238,56.01995200000238,56.01995200000238,56.01995200000238,56.01995200000238,56.01995200000238,56.01995200000238,57.22140899999067,[-0.17708333333333334],[0.16796875],[1],[0],[0],[1.2114359000115655],[1],['subtle_anger_main'],,,,,,,,,,,,,,,,,,,,,,,,,,,,,,,,,,,,,,,,,,,,,,,,,,01R,001,2024-12-03_19h46.38.250,SOLO_PROJECT_EXPERIMENT_NUTAN_KAIN_AU2220019,2024.1.5,None,2024-12-03 19h47.10.608187 +0530,
8,0,8,0,,,,,57.235719899996184,,,,,,,,,,,,,,,,,57.224318699969444,57.235719899996184,57.235719899996184,57.235719899996184,57.235719899996184,57.235719899996184,57.235719899996184,57.235719899996184,0.0014044999843463302,57.235719899996184,61.03678339999169,[0.17708333333333334],[0.140625],[1],[0],[0],[3.8101352999801748],[1],['subtle_anger'],61.041449500015005,61.06512859999202,0.0024570999667048454,61.06512859999202,61.06512859999202,61.06512859999202,61.06512859999202,61.06512859999202,61.06512859999202,61.06512859999202,62.314983599993866,[-0.1875],[0.3125],[1],[0],[0],[1.2702982000191696],[1],['subtle_anger_main'],,,,,,,,,,,,,,,,,,,,,,,,,,,,,,,,,,,,,,,,,,,,,,,,,,01R,001,2024-12-03_19h46.38.250,SOLO_PROJECT_EXPERIMENT_NUTAN_KAIN_AU2220019,2024.1.5,None,2024-12-03 19h47.10.608187 +0530,
9,0,9,0,,,,,62.32933049998246,,,,,,,,,,,,,,,,,62.31663760001538,62.32933049998246,62.32933049998246,62.32933049998246,62.32933049998246,62.32933049998246,62.32933049998246,62.32933049998246,0.0007970999577082694,62.32933049998246,63.66284070000984,[0.4622395833333333],[0.3684895833333333],[1],[0],[0],[1.3449740000069141],[1],['subtle_anger'],63.66420860000653,63.67903840000508,0.0006196000031195581,63.67903840000508,63.67903840000508,63.67903840000508,63.67903840000508,63.67903840000508,63.67903840000508,63.67903840000508,65.97932859999128,[0.3515625],[0.0703125],[1],[0],[0],[2.313804799981881],[1],['subtle_anger_main'],,,,,,,,,,,,,,,,,,,,,,,,,,,,,,,,,,,,,,,,,,,,,,,,,,01R,001,2024-12-03_19h46.38.250,SOLO_PROJECT_EXPERIMENT_NUTAN_KAIN_AU2220019,2024.1.5,None,2024-12-03 19h47.10.608187 +0530,
10,0,10,0,,,,,65.99336299998686,,,,,,,,,,,,,,,,,65.98145789996488,65.99336299998686,65.99336299998686,65.99336299998686,65.99336299998686,65.99336299998686,65.99336299998686,65.99336299998686,0.0011522999848239124,65.99336299998686,67.86008090001997,[-0.296875],[0.07682291666666667],[1],[0],[0],[1.8771640999475494],[1],['subtle_anger'],67.86191209999379,67.87381800002186,0.0008163999882526696,67.87381800002186,67.87381800002186,67.87381800002186,67.87381800002186,67.87381800002186,67.87381800002186,67.87381800002186,69.19123100000434,[-0.14973958333333334],[0.2630208333333333],[1],[0],[0],[1.3278446999611333],[1],['subtle_anger_main'],,,,,,,,,,,,,,,,,,,,,,,,,,,,,,,,,,,,,,,,,,,,,,,,,,01R,001,2024-12-03_19h46.38.250,SOLO_PROJECT_EXPERIMENT_NUTAN_KAIN_AU2220019,2024.1.5,None,2024-12-03 19h47.10.608187 +0530,
11,0,11,0,,,,,69.20591670001158,,,,,,,,,,,,,,,,,69.19319730001735,69.20591670001158,69.20591670001158,69.20591670001158,69.20591670001158,69.20591670001158,69.20591670001158,69.20591670001158,0.0010213000350631773,69.20591670001158,70.52369639999233,[0.015625],[0.4453125],[1],[0],[0],[1.3290983000188135],[1],['subtle_anger'],70.52516560000367,70.53857629996492,0.0005667000077664852,70.53857629996492,70.53857629996492,70.53857629996492,70.53857629996492,70.53857629996492,70.53857629996492,70.53857629996492,72.82087549997959,[-0.44140625],[0.2630208333333333],[1],[0],[0],[2.2946200000005774],[1],['subtle_anger_main'],,,,,,,,,,,,,,,,,,,,,,,,,,,,,,,,,,,,,,,,,,,,,,,,,,01R,001,2024-12-03_19h46.38.250,SOLO_PROJECT_EXPERIMENT_NUTAN_KAIN_AU2220019,2024.1.5,None,2024-12-03 19h47.10.608187 +0530,
12,0,12,0,,,,,72.83645010000328,,,,,,,,,,,,,,,,,72.82243719999678,72.83645010000328,72.83645010000328,72.83645010000328,72.83645010000328,72.83645010000328,72.83645010000328,72.83645010000328,0.0007726000039838254,72.83645010000328,74.63612280000234,[0.2903645833333333],[-0.4309895833333333],[1],[0],[0],[1.8124360000365414],[1],['subtle_anger'],74.63800370000536,74.65050579997478,0.0005852000322192907,74.65050579997478,74.65050579997478,74.65050579997478,74.65050579997478,74.65050579997478,74.65050579997478,74.65050579997478,75.85370839998359,[-0.13802083333333334],[0.15104166666666666],[1],[0],[0],[1.2143099999520928],[1],['subtle_anger_main'],,,,,,,,,,,,,,,,,,,,,,,,,,,,,,,,,,,,,,,,,,,,,,,,,,01R,001,2024-12-03_19h46.38.250,SOLO_PROJECT_EXPERIMENT_NUTAN_KAIN_AU2220019,2024.1.5,None,2024-12-03 19h47.10.608187 +0530,
13,0,13,0,,,,,75.8684048000141,,,,,,,,,,,,,,,,,75.85656669997843,75.8684048000141,75.8684048000141,75.8684048000141,75.8684048000141,75.8684048000141,75.8684048000141,75.8684048000141,0.0016373999533243477,75.8684048000141,76.95048180001322,[-0.48828125],[0.022135416666666668],[1],[0],[0],[1.0920897999894805],[1],['subtle_anger'],76.9520509999711,76.96538249996956,0.0006708999862894416,76.96538249996956,76.96538249996956,76.96538249996956,76.96538249996956,76.96538249996956,76.96538249996956,76.96538249996956,78.81748179998249,[0.3697916666666667],[-0.07942708333333333],[1],[0],[0],[1.8638356999726966],[1],['subtle_anger_main'],,,,,,,,,,,,,,,,,,,,,,,,,,,,,,,,,,,,,,,,,,,,,,,,,,01R,001,2024-12-03_19h46.38.250,SOLO_PROJECT_EXPERIMENT_NUTAN_KAIN_AU2220019,2024.1.5,None,2024-12-03 19h47.10.608187 +0530,
14,0,14,0,,,,,78.83090569998603,,,,,,,,,,,,,,,,,78.81960609997623,78.83090569998603,78.83090569998603,78.83090569998603,78.83090569998603,78.83090569998603,78.83090569998603,78.83090569998603,0.001249800028745085,78.83090569998603,81.43402609997429,[-0.016927083333333332],[0.26953125],[1],[0],[0],[2.6120616999687627],[1],['subtle_anger'],81.43719059997238,81.45631609996781,0.0014563999720849097,81.45631609996781,81.45631609996781,81.45631609996781,81.45631609996781,81.45631609996781,81.45631609996781,81.45631609996781,82.61373649997404,[-0.4791666666666667],[0.13411458333333334],[1],[0],[0],[1.1743339999811724],[1],['subtle_anger_main'],,,,,,,,,,,,,,,,,,,,,,,,,,,,,,,,,,,,,,,,,,,,,,,,,,01R,001,2024-12-03_19h46.38.250,SOLO_PROJECT_EXPERIMENT_NUTAN_KAIN_AU2220019,2024.1.5,None,2024-12-03 19h47.10.608187 +0530,
15,0,15,0,,,,,82.62650999997277,,,,,,,,,,,,,,,,,82.61586209997768,82.62650999997277,82.62650999997277,82.62650999997277,82.62650999997277,82.62650999997277,82.62650999997277,82.62650999997277,0.001158400031272322,82.62650999997277,83.59392449998995,[-0.16145833333333334],[0.1640625],[1],[0],[0],[0.9765668000327423],[1],['subtle_anger'],83.59524940000847,83.60872489999747,0.0006356000085361302,83.60872489999747,83.60872489999747,83.60872489999747,83.60872489999747,83.60872489999747,83.60872489999747,83.60872489999747,85.60928999999305,[-0.47265625],[-0.2565104166666667],[1],[0],[0],[2.0126488000387326],[1],['subtle_anger_main'],,,,,,,,,,,,,,,,,,,,,,,,,,,,,,,,,,,,,,,,,,,,,,,,,,01R,001,2024-12-03_19h46.38.250,SOLO_PROJECT_EXPERIMENT_NUTAN_KAIN_AU2220019,2024.1.5,None,2024-12-03 19h47.10.608187 +0530,
16,0,16,0,,,,,85.62328030000208,,,,,,,,,,,,,,,,,85.61169130000053,85.62328030000208,85.62328030000208,85.62328030000208,85.62328030000208,85.62328030000208,85.62328030000208,85.62328030000208,0.0013265000307001173,85.62328030000208,86.42540239996742,[-0.20833333333333334],[0.17578125],[1],[0],[0],[0.8116475999704562],[1],['subtle_anger'],86.42720500001451,86.4403465000214,0.0007921999786049128,86.4403465000214,86.4403465000214,86.4403465000214,86.4403465000214,86.4403465000214,86.4403465000214,86.4403465000214,87.623327600013,[-0.4010416666666667],[0.13151041666666666],[1],[0],[0],[1.1945116000133567],[1],['subtle_anger_main'],,,,,,,,,,,,,,,,,,,,,,,,,,,,,,,,,,,,,,,,,,,,,,,,,,01R,001,2024-12-03_19h46.38.250,SOLO_PROJECT_EXPERIMENT_NUTAN_KAIN_AU2220019,2024.1.5,None,2024-12-03 19h47.10.608187 +0530,
17,0,17,0,,,,,87.63885180000216,,,,,,,,,,,,,,,,,87.62567199999467,87.63885180000216,87.63885180000216,87.63885180000216,87.63885180000216,87.63885180000216,87.63885180000216,87.63885180000216,0.0012574999709613621,87.63885180000216,89.45579899998847,[-0.2942708333333333],[-0.37109375],[1],[0],[0],[1.8284646999672987],[1],['subtle_anger'],89.45817920000991,89.47098889999324,0.0011807999690063298,89.47098889999324,89.47098889999324,89.47098889999324,89.47098889999324,89.47098889999324,89.47098889999324,89.47098889999324,91.43740890000481,[0.3763020833333333],[0.3203125],[1],[0],[0],[1.9774682999704964],[1],['subtle_anger_main'],,,,,,,,,,,,,,,,,,,,,,,,,,,,,,,,,,,,,,,,,,,,,,,,,,01R,001,2024-12-03_19h46.38.250,SOLO_PROJECT_EXPERIMENT_NUTAN_KAIN_AU2220019,2024.1.5,None,2024-12-03 19h47.10.608187 +0530,
18,0,18,0,,,,,91.45122139999876,,,,,,,,,,,,,,,,,91.43923999997787,91.45122139999876,91.45122139999876,91.45122139999876,91.45122139999876,91.45122139999876,91.45122139999876,91.45122139999876,0.001026199955958873,91.45122139999876,93.65020919998642,[-0.4479166666666667],[-0.44140625],[1],[0],[0],[2.209412699972745],[1],['subtle_anger'],93.65137340000365,93.66588380001485,0.0005500999977812171,93.66588380001485,93.66588380001485,93.66588380001485,93.66588380001485,93.66588380001485,93.66588380001485,93.66588380001485,100.61177419999149,[0.24088541666666666],[0.39453125],[1],[0],[0],[6.959227699961048],[1],['subtle_anger_main'],,,,,,,,,,,,,,,,,,,,,,,,,,,,,,,,,,,,,,,,,,,,,,,,,,01R,001,2024-12-03_19h46.38.250,SOLO_PROJECT_EXPERIMENT_NUTAN_KAIN_AU2220019,2024.1.5,None,2024-12-03 19h47.10.608187 +0530,
19,0,19,0,,,,,100.62567579996539,,,,,,,,,,,,,,,,,100.61401179997483,100.62567579996539,100.62567579996539,100.62567579996539,100.62567579996539,100.62567579996539,100.62567579996539,100.62567579996539,0.001089799974579364,100.62567579996539,102.45986850000918,[0.3020833333333333],[-0.23046875],[1],[0],[0],[1.8442467999993823],[1],['subtle_anger'],102.46188099996652,102.47363279998535,0.0009057000279426575,102.47363279998535,102.47363279998535,102.47363279998535,102.47363279998535,102.47363279998535,102.47363279998535,102.47363279998535,103.89380469999742,[0.10807291666666667],[-0.018229166666666668],[1],[0],[0],[1.4304200999904424],[1],['subtle_anger_main'],,,,,,,,,,,,,,,,,,,,,,,,,,,,,,,,,,,,,,,,,,,,,,,,,,01R,001,2024-12-03_19h46.38.250,SOLO_PROJECT_EXPERIMENT_NUTAN_KAIN_AU2220019,2024.1.5,None,2024-12-03 19h47.10.608187 +0530,
20,0,20,0,,,,,103.90572589996736,,,,,,,,,,,,,,,,,103.8954337000032,103.90572589996736,103.90572589996736,103.90572589996736,103.90572589996736,103.90572589996736,103.90572589996736,103.90572589996736,0.0008983000298030674,103.90572589996736,105.32498500001384,[0.30078125],[0.42578125],[1],[0],[0],[1.4275389999966137],[1],['subtle_anger'],105.32853549998254,105.34650079999119,0.0015091999666765332,105.34650079999119,105.34650079999119,105.34650079999119,105.34650079999119,105.34650079999119,105.34650079999119,105.34650079999119,106.45516899996437,[0.20833333333333334],[0.29296875],[1],[0],[0],[1.1243214999558404],[1],['subtle_anger_main'],,,,,,,,,,,,,,,,,,,,,,,,,,,,,,,,,,,,,,,,,,,,,,,,,,01R,001,2024-12-03_19h46.38.250,SOLO_PROJECT_EXPERIMENT_NUTAN_KAIN_AU2220019,2024.1.5,None,2024-12-03 19h47.10.608187 +0530,
21,0,21,0,,,,,106.46969250001712,,,,,,,,,,,,,,,,,106.45749120000983,106.46969250001712,106.46969250001712,106.46969250001712,106.46969250001712,106.46969250001712,106.46969250001712,106.46969250001712,0.0013827999937348068,106.46969250001712,107.62048360001063,[-0.28125],[-0.0390625],[1],[0],[0],[1.1615442999755032],[1],['subtle_anger'],107.6218914000201,107.63557490002131,0.0006602999637834728,107.63557490002131,107.63557490002131,107.63557490002131,107.63557490002131,107.63557490002131,107.63557490002131,107.63557490002131,109.43529749999288,[0.3229166666666667],[-0.359375],[1],[0],[0],[1.8121963999583386],[1],['subtle_anger_main'],,,,,,,,,,,,,,,,,,,,,,,,,,,,,,,,,,,,,,,,,,,,,,,,,,01R,001,2024-12-03_19h46.38.250,SOLO_PROJECT_EXPERIMENT_NUTAN_KAIN_AU2220019,2024.1.5,None,2024-12-03 19h47.10.608187 +0530,
22,0,22,0,,,,,109.44986459997017,,,,,,,,,,,,,,,,,109.43678829999408,109.44986459997017,109.44986459997017,109.44986459997017,109.44986459997017,109.44986459997017,109.44986459997017,109.44986459997017,0.0007664999575354159,109.44986459997017,111.71734189998824,[-0.055989583333333336],[-0.21614583333333334],[1],[0],[0],[2.2793657000293024],[1],['subtle_anger'],111.71916839998448,111.73175560001982,0.0008628000505268574,111.73175560001982,111.73175560001982,111.73175560001982,111.73175560001982,111.73175560001982,111.73175560001982,111.73175560001982,113.98161459999392,[-0.33984375],[-0.014322916666666666],[1],[0],[0],[2.2606186000048183],[1],['subtle_anger_main'],,,,,,,,,,,,,,,,,,,,,,,,,,,,,,,,,,,,,,,,,,,,,,,,,,01R,001,2024-12-03_19h46.38.250,SOLO_PROJECT_EXPERIMENT_NUTAN_KAIN_AU2220019,2024.1.5,None,2024-12-03 19h47.10.608187 +0530,
23,0,23,0,,,,,113.99594409996644,,,,,,,,,,,,,,,,,113.98424660001183,113.99594409996644,113.99594409996644,113.99594409996644,113.99594409996644,113.99594409996644,113.99594409996644,113.99594409996644,0.0013429000391624868,113.99594409996644,116.44516549998662,[0.06640625],[0.07421875],[1],[0],[0],[2.4592248999979347],[1],['subtle_anger'],116.44686939998064,116.46037849999266,0.0007746999617666006,116.46037849999266,116.46037849999266,116.46037849999266,116.46037849999266,116.46037849999266,116.46037849999266,116.46037849999266,120.57428459997755,[-0.06510416666666667],[-0.4114583333333333],[1],[0],[0],[4.125979200005531],[1],['subtle_anger_main'],,,,,,,,,,,,,,,,,,,,,,,,,,,,,,,,,,,,,,,,,,,,,,,,,,01R,001,2024-12-03_19h46.38.250,SOLO_PROJECT_EXPERIMENT_NUTAN_KAIN_AU2220019,2024.1.5,None,2024-12-03 19h47.10.608187 +0530,
24,0,24,0,,,,,120.58956619998207,,,,,,,,,,,,,,,,,120.5763666999992,120.58956619998207,120.58956619998207,120.58956619998207,120.58956619998207,120.58956619998207,120.58956619998207,120.58956619998207,0.0011569999624043703,120.58956619998207,122.95547769998666,[-0.23567708333333334],[0.24869791666666666],[1],[0],[0],[2.3777057000552304],[1],['subtle_anger'],122.95687539997743,122.9701610999764,0.0006746000144630671,122.9701610999764,122.9701610999764,122.9701610999764,122.9701610999764,122.9701610999764,122.9701610999764,122.9701610999764,125.28701249998994,[0.4466145833333333],[0.38671875],[1],[0],[0],[2.3289318999741226],[1],['subtle_anger_main'],,,,,,,,,,,,,,,,,,,,,,,,,,,,,,,,,,,,,,,,,,,,,,,,,,01R,001,2024-12-03_19h46.38.250,SOLO_PROJECT_EXPERIMENT_NUTAN_KAIN_AU2220019,2024.1.5,None,2024-12-03 19h47.10.608187 +0530,
25,0,25,0,,,,,125.30141239997465,,,,,,,,,,,,,,,,,125.2886857999838,125.30141239997465,125.30141239997465,125.30141239997465,125.30141239997465,125.30141239997465,125.30141239997465,125.30141239997465,0.0009234999888576567,125.30141239997465,127.56932609999785,[-0.4609375],[-0.029947916666666668],[1],[0],[0],[2.279345699993428],[1],['subtle_anger'],127.57112779997988,127.58286879997468,0.0009031999506987631,127.58286879997468,127.58286879997468,127.58286879997468,127.58286879997468,127.58286879997468,127.58286879997468,127.58286879997468,129.7817904999829,[-0.044270833333333336],[-0.3880208333333333],[1],[0],[0],[2.2091143999714404],[1],['subtle_anger_main'],,,,,,,,,,,,,,,,,,,,,,,,,,,,,,,,,,,,,,,,,,,,,,,,,,01R,001,2024-12-03_19h46.38.250,SOLO_PROJECT_EXPERIMENT_NUTAN_KAIN_AU2220019,2024.1.5,None,2024-12-03 19h47.10.608187 +0530,
26,0,26,0,,,,,129.79669089999516,,,,,,,,,,,,,,,,,129.78369140002178,129.79669089999516,129.79669089999516,129.79669089999516,129.79669089999516,129.79669089999516,129.79669089999516,129.79669089999516,0.0010711000068113208,129.79669089999516,131.01404899999034,[-0.34375],[-0.09114583333333333],[1],[0],[0],[1.2290816999739036],[1],['subtle_anger'],131.01528310001595,131.0291928999941,0.0004997999640181661,131.0291928999941,131.0291928999941,131.0291928999941,131.0291928999941,131.0291928999941,131.0291928999941,131.0291928999941,133.67875859997002,[-0.20052083333333334],[-0.40234375],[1],[0],[0],[2.6622855000314303],[1],['subtle_anger_main'],,,,,,,,,,,,,,,,,,,,,,,,,,,,,,,,,,,,,,,,,,,,,,,,,,01R,001,2024-12-03_19h46.38.250,SOLO_PROJECT_EXPERIMENT_NUTAN_KAIN_AU2220019,2024.1.5,None,2024-12-03 19h47.10.608187 +0530,
27,0,27,0,,,,,133.69307819998357,,,,,,,,,,,,,,,,,133.68126839998877,133.69307819998357,133.69307819998357,133.69307819998357,133.69307819998357,133.69307819998357,133.69307819998357,133.69307819998357,0.0014652000390924513,133.69307819998357,135.1300858000177,[-0.4244791666666667],[0.22395833333333334],[1],[0],[0],[1.4468886000104249],[1],['subtle_anger'],135.13265509996563,135.14400959998602,0.0008383000385947526,135.14400959998602,135.14400959998602,135.14400959998602,135.14400959998602,135.14400959998602,135.14400959998602,135.14400959998602,137.82540959998732,[0.0],[-0.265625],[1],[0],[0],[2.6911888000322506],[1],['subtle_anger_main'],,,,,,,,,,,,,,,,,,,,,,,,,,,,,,,,,,,,,,,,,,,,,,,,,,01R,001,2024-12-03_19h46.38.250,SOLO_PROJECT_EXPERIMENT_NUTAN_KAIN_AU2220019,2024.1.5,None,2024-12-03 19h47.10.608187 +0530,
28,0,28,0,,,,,137.83926560002146,,,,,,,,,,,,,,,,,137.82791280001402,137.83926560002146,137.83926560002146,137.83926560002146,137.83926560002146,137.83926560002146,137.83926560002146,137.83926560002146,0.0013749999925494194,137.83926560002146,140.30553750001127,[-0.20833333333333334],[0.14322916666666666],[1],[0],[0],[2.4760781999793835],[1],['subtle_anger'],140.30724260001443,140.32054659997812,0.000762399984523654,140.32054659997812,140.32054659997812,140.32054659997812,140.32054659997812,140.32054659997812,140.32054659997812,140.32054659997812,142.25332610000623,[-0.4453125],[0.2786458333333333],[1],[0],[0],[1.9446009999956004],[1],['subtle_anger_main'],,,,,,,,,,,,,,,,,,,,,,,,,,,,,,,,,,,,,,,,,,,,,,,,,,01R,001,2024-12-03_19h46.38.250,SOLO_PROJECT_EXPERIMENT_NUTAN_KAIN_AU2220019,2024.1.5,None,2024-12-03 19h47.10.608187 +0530,
29,0,29,0,,,,,142.2679180999985,,,,,,,,,,,,,,,,,142.255508799979,142.2679180999985,142.2679180999985,142.2679180999985,142.2679180999985,142.2679180999985,142.2679180999985,142.2679180999985,0.0010358000290580094,142.2679180999985,143.6196924999822,[0.19921875],[0.46484375],[1],[0],[0],[1.3625752999796532],[1],['subtle_anger'],143.622090400022,143.6340491999872,0.001042800024151802,143.6340491999872,143.6340491999872,143.6340491999872,143.6340491999872,143.6340491999872,143.6340491999872,143.6340491999872,145.31736290000845,[0.17838541666666666],[-0.10807291666666667],[1],[0],[0],[1.6935431000310928],[1],['subtle_anger_main'],,,,,,,,,,,,,,,,,,,,,,,,,,,,,,,,,,,,,,,,,,,,,,,,,,01R,001,2024-12-03_19h46.38.250,SOLO_PROJECT_EXPERIMENT_NUTAN_KAIN_AU2220019,2024.1.5,None,2024-12-03 19h47.10.608187 +0530,
30,0,30,0,,,,,145.33195409999462,,,,,,,,,,,,,,,,,145.3191987000173,145.33195409999462,145.33195409999462,145.33195409999462,145.33195409999462,145.33195409999462,145.33195409999462,145.33195409999462,0.0009798999526537955,145.33195409999462,147.99809949996416,[0.546875],[-0.38671875],[1],[0],[0],[2.6775836999877356],[1],['subtle_anger'],147.99949179997202,148.01227479998488,0.0006200000061653554,148.01227479998488,148.01227479998488,148.01227479998488,148.01227479998488,148.01227479998488,148.01227479998488,148.01227479998488,149.49632879998535,[-0.35546875],[0.23828125],[1],[0],[0],[1.4955724999890663],[1],['subtle_anger_main'],,,,,,,,,,,,,,,,,,,,,,,,,,,,,,,,,,,,,,,,,,,,,,,,,,01R,001,2024-12-03_19h46.38.250,SOLO_PROJECT_EXPERIMENT_NUTAN_KAIN_AU2220019,2024.1.5,None,2024-12-03 19h47.10.608187 +0530,
31,0,31,0,,,,,149.51113469997654,,,,,,,,,,,,,,,,,149.498027499998,149.51113469997654,149.51113469997654,149.51113469997654,149.51113469997654,149.51113469997654,149.51113469997654,149.51113469997654,0.0009189000120386481,149.51113469997654,151.77798680000706,[-0.4322916666666667],[0.2734375],[1],[0],[0],[2.2785266999853775],[1],['subtle_anger'],151.77993089996744,151.7918652999797,0.0008282999624498188,151.7918652999797,151.7918652999797,151.7918652999797,151.7918652999797,151.7918652999797,151.7918652999797,151.7918652999797,154.3753551999689,[0.3541666666666667],[-0.421875],[1],[0],[0],[2.5937720999936573],[1],['subtle_anger_main'],,,,,,,,,,,,,,,,,,,,,,,,,,,,,,,,,,,,,,,,,,,,,,,,,,01R,001,2024-12-03_19h46.38.250,SOLO_PROJECT_EXPERIMENT_NUTAN_KAIN_AU2220019,2024.1.5,None,2024-12-03 19h47.10.608187 +0530,
32,0,32,0,,,,,154.3896047999733,,,,,,,,,,,,,,,,,154.37806399998954,154.3896047999733,154.3896047999733,154.3896047999733,154.3896047999733,154.3896047999733,154.3896047999733,154.3896047999733,0.0014517000527121127,154.3896047999733,155.55772609997075,[-0.23046875],[0.18229166666666666],[1],[0],[0],[1.1777495000278577],[1],['subtle_anger'],155.559161400015,155.5739035999868,0.0006553999846801162,155.5739035999868,155.5739035999868,155.5739035999868,155.5739035999868,155.5739035999868,155.5739035999868,155.5739035999868,156.95543019997422,[0.3932291666666667],[0.4244791666666667],[1],[0],[0],[1.3949081000173464],[1],['subtle_anger_main'],,,,,,,,,,,,,,,,,,,,,,,,,,,,,,,,,,,,,,,,,,,,,,,,,,01R,001,2024-12-03_19h46.38.250,SOLO_PROJECT_EXPERIMENT_NUTAN_KAIN_AU2220019,2024.1.5,None,2024-12-03 19h47.10.608187 +0530,
33,0,33,0,,,,,156.97048899997026,,,,,,,,,,,,,,,,,156.9579958000104,156.97048899997026,156.97048899997026,156.97048899997026,156.97048899997026,156.97048899997026,156.97048899997026,156.97048899997026,0.0012344999704509974,156.97048899997026,158.90385220001917,[-0.125],[0.09505208333333333],[1],[0],[0],[1.9443638999946415],[1],['subtle_anger'],158.90526029997272,158.91833680000855,0.0007100000511854887,158.91833680000855,158.91833680000855,158.91833680000855,158.91833680000855,158.91833680000855,158.91833680000855,158.91833680000855,160.28564590000315,[0.4153645833333333],[0.032552083333333336],[1],[0],[0],[1.3789261000347324],[1],['subtle_anger_main'],,,,,,,,,,,,,,,,,,,,,,,,,,,,,,,,,,,,,,,,,,,,,,,,,,01R,001,2024-12-03_19h46.38.250,SOLO_PROJECT_EXPERIMENT_NUTAN_KAIN_AU2220019,2024.1.5,None,2024-12-03 19h47.10.608187 +0530,
34,0,34,0,,,,,160.3004409999703,,,,,,,,,,,,,,,,,160.287742000015,160.3004409999703,160.3004409999703,160.3004409999703,160.3004409999703,160.3004409999703,160.3004409999703,160.3004409999703,0.0012704000109806657,160.3004409999703,161.63602490001358,[0.17838541666666666],[-0.1015625],[1],[0],[0],[1.34656969999196],[1],['subtle_anger'],161.63782519998495,161.6487704999745,0.0006567000527866185,161.6487704999745,161.6487704999745,161.6487704999745,161.6487704999745,161.6487704999745,161.6487704999745,161.6487704999745,163.03328889998375,[0.2955729166666667],[0.06640625],[1],[0],[0],[1.3942229999811389],[1],['subtle_anger_main'],,,,,,,,,,,,,,,,,,,,,,,,,,,,,,,,,,,,,,,,,,,,,,,,,,01R,001,2024-12-03_19h46.38.250,SOLO_PROJECT_EXPERIMENT_NUTAN_KAIN_AU2220019,2024.1.5,None,2024-12-03 19h47.10.608187 +0530,
35,0,35,0,,,,,163.0476641000132,,,,,,,,,,,,,,,,,163.0350119000068,163.0476641000132,163.0476641000132,163.0476641000132,163.0476641000132,163.0476641000132,163.0476641000132,163.0476641000132,0.0009334000060334802,163.0476641000132,165.21413699997356,[-0.4153645833333333],[-0.13802083333333334],[1],[0],[0],[2.1778484000242315],[1],['subtle_anger'],165.21541439997964,165.22901760000968,0.0005380000220611691,165.22901760000968,165.22901760000968,165.22901760000968,165.22901760000968,165.22901760000968,165.22901760000968,165.22901760000968,166.76376379997237,[0.296875],[0.4791666666666667],[1],[0],[0],[1.5470900000073016],[1],['subtle_anger_main'],,,,,,,,,,,,,,,,,,,,,,,,,,,,,,,,,,,,,,,,,,,,,,,,,,01R,001,2024-12-03_19h46.38.250,SOLO_PROJECT_EXPERIMENT_NUTAN_KAIN_AU2220019,2024.1.5,None,2024-12-03 19h47.10.608187 +0530,
36,0,36,0,,,,,166.7776599000208,,,,,,,,,,,,,,,,,166.76554019999458,166.7776599000208,166.7776599000208,166.7776599000208,166.7776599000208,166.7776599000208,166.7776599000208,166.7776599000208,0.000985699996817857,166.7776599000208,168.5276533999713,[0.3841145833333333],[-0.19270833333333334],[1],[0],[0],[1.7606951000052504],[1],['subtle_anger'],168.52922710002167,168.54207580001093,0.0006812000065110624,168.54207580001093,168.54207580001093,168.54207580001093,168.54207580001093,168.54207580001093,168.54207580001093,168.54207580001093,169.62662200001068,[-0.09635416666666667],[-0.16927083333333334],[1],[0],[0],[1.095892500015907],[1],['subtle_anger_main'],,,,,,,,,,,,,,,,,,,,,,,,,,,,,,,,,,,,,,,,,,,,,,,,,,01R,001,2024-12-03_19h46.38.250,SOLO_PROJECT_EXPERIMENT_NUTAN_KAIN_AU2220019,2024.1.5,None,2024-12-03 19h47.10.608187 +0530,
37,0,37,0,,,,,169.64079799997853,,,,,,,,,,,,,,,,,169.62919259996852,169.64079799997853,169.64079799997853,169.64079799997853,169.64079799997853,169.64079799997853,169.64079799997853,169.64079799997853,0.001339699956588447,169.64079799997853,170.85900180001045,[0.3033854166666667],[0.08463541666666667],[1],[0],[0],[1.228230899956543],[1],['subtle_anger'],170.86058929999126,170.87308629998006,0.000687599997036159,170.87308629998006,170.87308629998006,170.87308629998006,170.87308629998006,170.87308629998006,170.87308629998006,170.87308629998006,172.99107390001882,[0.42578125],[-0.3033854166666667],[1],[0],[0],[2.129031499964185],[1],['subtle_anger_main'],,,,,,,,,,,,,,,,,,,,,,,,,,,,,,,,,,,,,,,,,,,,,,,,,,01R,001,2024-12-03_19h46.38.250,SOLO_PROJECT_EXPERIMENT_NUTAN_KAIN_AU2220019,2024.1.5,None,2024-12-03 19h47.10.608187 +0530,
38,0,38,0,,,,,173.00461609999184,,,,,,,,,,,,,,,,,172.99334639997687,173.00461609999184,173.00461609999184,173.00461609999184,173.00461609999184,173.00461609999184,173.00461609999184,173.00461609999184,0.001438800012692809,173.00461609999184,174.9225471999962,[-0.3515625],[-0.4348958333333333],[1],[0],[0],[1.9273074999800883],[1],['subtle_anger'],174.92411469999934,174.93558910000138,0.0007650000043213367,174.93558910000138,174.93558910000138,174.93558910000138,174.93558910000138,174.93558910000138,174.93558910000138,174.93558910000138,176.92064389999723,[-0.01171875],[-0.3489583333333333],[1],[0],[0],[1.9949952999595553],[1],['subtle_anger_main'],,,,,,,,,,,,,,,,,,,,,,,,,,,,,,,,,,,,,,,,,,,,,,,,,,01R,001,2024-12-03_19h46.38.250,SOLO_PROJECT_EXPERIMENT_NUTAN_KAIN_AU2220019,2024.1.5,None,2024-12-03 19h47.10.608187 +0530,
39,0,39,0,,,,,176.9343041999964,,,,,,,,,,,,,,,,,176.92275969998445,176.9343041999964,176.9343041999964,176.9343041999964,176.9343041999964,176.9343041999964,176.9343041999964,176.9343041999964,0.0011560000129975379,176.9343041999964,178.33431329997256,[-0.10286458333333333],[0.3411458333333333],[1],[0],[0],[1.410154200042598],[1],['subtle_anger'],178.33562319999328,178.34889849997126,0.0006024999893270433,178.34889849997126,178.34889849997126,178.34889849997126,178.34889849997126,178.34889849997126,178.34889849997126,178.34889849997126,180.28278609999688,[0.08463541666666667],[0.2708333333333333],[1],[0],[0],[1.9459747000364587],[1],['subtle_anger_main'],,,,,,,,,,,,,,,,,,,,,,,,,,,,,,,,,,,,,,,,,,,,,,,,,,01R,001,2024-12-03_19h46.38.250,SOLO_PROJECT_EXPERIMENT_NUTAN_KAIN_AU2220019,2024.1.5,None,2024-12-03 19h47.10.608187 +0530,
40,0,40,0,,,,,180.29751840000972,,,,,,,,,,,,,,,,,180.2843202999793,180.29751840000972,180.29751840000972,180.29751840000972,180.29751840000972,180.29751840000972,180.29751840000972,180.29751840000972,0.0008289000252261758,180.29751840000972,181.58101700001862,[0.24348958333333334],[0.03515625],[1],[0],[0],[1.295378900016658],[1],['subtle_anger'],181.58249820000492,181.59619169996586,0.0006505000055767596,181.59619169996586,181.59619169996586,181.59619169996586,181.59619169996586,181.59619169996586,181.59619169996586,181.59619169996586,183.22991270001512,[0.3138020833333333],[-0.2747395833333333],[1],[0],[0],[1.6460037999786437],[1],['subtle_anger_main'],,,,,,,,,,,,,,,,,,,,,,,,,,,,,,,,,,,,,,,,,,,,,,,,,,01R,001,2024-12-03_19h46.38.250,SOLO_PROJECT_EXPERIMENT_NUTAN_KAIN_AU2220019,2024.1.5,None,2024-12-03 19h47.10.608187 +0530,
41,0,41,0,,,,,183.2447829999728,,,,,,,,,,,,,,,,,183.2318658999866,183.2447829999728,183.2447829999728,183.2447829999728,183.2447829999728,183.2447829999728,183.2447829999728,183.2447829999728,0.001122599991504103,183.2447829999728,184.57805169996573,[-0.03515625],[-0.3736979166666667],[1],[0],[0],[1.3447684000129811],[1],['subtle_anger'],184.57977060001576,184.59346269996604,0.0005842999671585858,184.59346269996604,184.59346269996604,184.59346269996604,184.59346269996604,184.59346269996604,184.59346269996604,184.59346269996604,186.79329080000753,[-0.22916666666666666],[-0.4518229166666667],[1],[0],[0],[2.2121588999871165],[1],['subtle_anger_main'],,,,,,,,,,,,,,,,,,,,,,,,,,,,,,,,,,,,,,,,,,,,,,,,,,01R,001,2024-12-03_19h46.38.250,SOLO_PROJECT_EXPERIMENT_NUTAN_KAIN_AU2220019,2024.1.5,None,2024-12-03 19h47.10.608187 +0530,
42,0,42,0,,,,,186.8073032000102,,,,,,,,,,,,,,,,,186.79555799998343,186.8073032000102,186.8073032000102,186.8073032000102,186.8073032000102,186.8073032000102,186.8073032000102,186.8073032000102,0.0013288999907672405,186.8073032000102,188.00902639998822,[-0.1953125],[0.05859375],[1],[0],[0],[1.2117722000111826],[1],['subtle_anger'],188.010590699967,188.02300819999073,0.0007388999802060425,188.02300819999073,188.02300819999073,188.02300819999073,188.02300819999073,188.02300819999073,188.02300819999073,188.02300819999073,188.96132160001434,[-0.16536458333333334],[0.18359375],[1],[0],[0],[0.9486533000017516],[1],['subtle_anger_main'],,,,,,,,,,,,,,,,,,,,,,,,,,,,,,,,,,,,,,,,,,,,,,,,,,01R,001,2024-12-03_19h46.38.250,SOLO_PROJECT_EXPERIMENT_NUTAN_KAIN_AU2220019,2024.1.5,None,2024-12-03 19h47.10.608187 +0530,
43,0,43,0,,,,,188.97892909997609,,,,,,,,,,,,,,,,,188.96500069997273,188.97892909997609,188.97892909997609,188.97892909997609,188.97892909997609,188.97892909997609,188.97892909997609,188.97892909997609,0.0019617999787442386,188.97892909997609,190.57302529999288,[0.2109375],[-0.3372395833333333],[1],[0],[0],[1.605837100010831],[1],['subtle_anger'],190.5745486000087,190.58769869996468,0.0007009999826550484,190.58769869996468,190.58769869996468,190.58769869996468,190.58769869996468,190.58769869996468,190.58769869996468,190.58769869996468,191.7420950999949,[0.12630208333333334],[0.015625],[1],[0],[0],[1.1655986999976449],[1],['subtle_anger_main'],,,,,,,,,,,,,,,,,,,,,,,,,,,,,,,,,,,,,,,,,,,,,,,,,,01R,001,2024-12-03_19h46.38.250,SOLO_PROJECT_EXPERIMENT_NUTAN_KAIN_AU2220019,2024.1.5,None,2024-12-03 19h47.10.608187 +0530,
44,0,44,0,,,,,191.7616145000211,,,,,,,,,,,,,,,,,191.7463716000202,191.7616145000211,191.7616145000211,191.7616145000211,191.7616145000211,191.7616145000211,191.7616145000211,191.7616145000211,0.0022495000157505274,191.7616145000211,193.40325659996597,[0.51171875],[0.041666666666666664],[1],[0],[0],[1.6544297999935225],[1],['subtle_anger'],193.40518519998295,193.41760749998502,0.00077629997394979,193.41760749998502,193.41760749998502,193.41760749998502,193.41760749998502,193.41760749998502,193.41760749998502,193.41760749998502,196.94985999999335,[-0.5364583333333334],[0.2578125],[1],[0],[0],[3.5433132000034675],[1],['subtle_anger_main'],,,,,,,,,,,,,,,,,,,,,,,,,,,,,,,,,,,,,,,,,,,,,,,,,,01R,001,2024-12-03_19h46.38.250,SOLO_PROJECT_EXPERIMENT_NUTAN_KAIN_AU2220019,2024.1.5,None,2024-12-03 19h47.10.608187 +0530,
45,0,45,0,,,,,196.9647668999969,,,,,,,,,,,,,,,,,196.95134359999793,196.9647668999969,196.9647668999969,196.9647668999969,196.9647668999969,196.9647668999969,196.9647668999969,196.9647668999969,0.0008221000316552818,196.9647668999969,198.08147560001817,[-0.5],[0.24739583333333334],[1],[0],[0],[1.128880099975504],[1],['subtle_anger'],198.08308720000787,198.0968259999645,0.0007489999989047647,198.0968259999645,198.0968259999645,198.0968259999645,198.0968259999645,198.0968259999645,198.0968259999645,198.0968259999645,199.36559439997654,[-0.16015625],[0.01953125],[1],[0],[0],[1.2811076000216417],[1],['subtle_anger_main'],,,,,,,,,,,,,,,,,,,,,,,,,,,,,,,,,,,,,,,,,,,,,,,,,,01R,001,2024-12-03_19h46.38.250,SOLO_PROJECT_EXPERIMENT_NUTAN_KAIN_AU2220019,2024.1.5,None,2024-12-03 19h47.10.608187 +0530,
46,0,46,0,,,,,199.37855779996607,,,,,,,,,,,,,,,,,199.36762570001883,199.37855779996607,199.37855779996607,199.37855779996607,199.37855779996607,199.37855779996607,199.37855779996607,199.37855779996607,0.0011845999979414046,199.37855779996607,202.7605831999681,[-0.43359375],[-0.21744791666666666],[1],[0],[0],[3.391630200028885],[1],['subtle_anger'],202.761738399975,202.77517320000334,0.0004847000236622989,202.77517320000334,202.77517320000334,202.77517320000334,202.77517320000334,202.77517320000334,202.77517320000334,202.77517320000334,204.74359580001328,[0.12890625],[-0.4375],[1],[0],[0],[1.9806557999690995],[1],['subtle_anger_main'],,,,,,,,,,,,,,,,,,,,,,,,,,,,,,,,,,,,,,,,,,,,,,,,,,01R,001,2024-12-03_19h46.38.250,SOLO_PROJECT_EXPERIMENT_NUTAN_KAIN_AU2220019,2024.1.5,None,2024-12-03 19h47.10.608187 +0530,
47,0,47,0,,,,,204.75755629997002,,,,,,,,,,,,,,,,,204.74609279999277,204.75755629997002,204.75755629997002,204.75755629997002,204.75755629997002,204.75755629997002,204.75755629997002,204.75755629997002,0.0012316000065766275,204.75755629997002,206.15868709998904,[-0.21354166666666666],[-0.13802083333333334],[1],[0],[0],[1.4109313000226393],[1],['subtle_anger'],206.16059539996786,206.1716618000064,0.0007815000135451555,206.1716618000064,206.1716618000064,206.1716618000064,206.1716618000064,206.1716618000064,206.1716618000064,206.1716618000064,207.25850060000084,[-0.41015625],[0.2565104166666667],[1],[0],[0],[1.0961941999848932],[1],['subtle_anger_main'],,,,,,,,,,,,,,,,,,,,,,,,,,,,,,,,,,,,,,,,,,,,,,,,,,01R,001,2024-12-03_19h46.38.250,SOLO_PROJECT_EXPERIMENT_NUTAN_KAIN_AU2220019,2024.1.5,None,2024-12-03 19h47.10.608187 +0530,
48,0,48,0,,,,,207.27226689999225,,,,,,,,,,,,,,,,,207.26130339998053,207.27226689999225,207.27226689999225,207.27226689999225,207.27226689999225,207.27226689999225,207.27226689999225,207.27226689999225,0.0014943999703973532,207.27226689999225,208.85469629999716,[-0.265625],[-0.3802083333333333],[1],[0],[0],[1.5917756999842823],[1],['subtle_anger'],208.8565377999912,208.86939890001668,0.000937800039537251,208.86939890001668,208.86939890001668,208.86939890001668,208.86939890001668,208.86939890001668,208.86939890001668,208.86939890001668,213.68391779996455,[-0.14322916666666666],[0.045572916666666664],[1],[0],[0],[4.825596900016535],[1],['subtle_anger_main'],,,,,,,,,,,,,,,,,,,,,,,,,,,,,,,,,,,,,,,,,,,,,,,,,,01R,001,2024-12-03_19h46.38.250,SOLO_PROJECT_EXPERIMENT_NUTAN_KAIN_AU2220019,2024.1.5,None,2024-12-03 19h47.10.608187 +0530,
49,0,49,0,,,,,213.6986047999817,,,,,,,,,,,,,,,,,213.68649220000952,213.6986047999817,213.6986047999817,213.6986047999817,213.6986047999817,213.6986047999817,213.6986047999817,213.6986047999817,0.0013219999964348972,213.6986047999817,215.01533789996756,[-0.24869791666666666],[0.13802083333333334],[1],[0],[0],[1.3271836999920197],[1],['subtle_anger'],215.01687479997054,215.03031130001182,0.0007637999951839447,215.03031130001182,215.03031130001182,215.03031130001182,215.03031130001182,215.03031130001182,215.03031130001182,215.03031130001182,216.58107409998775,[-0.018229166666666668],[-0.04296875],[1],[0],[0],[1.5627279999898747],[1],['subtle_anger_main'],,,,,,,,,,,,,,,,,,,,,,,,,,,,,,,,,,,,,,,,,,,,,,,,,,01R,001,2024-12-03_19h46.38.250,SOLO_PROJECT_EXPERIMENT_NUTAN_KAIN_AU2220019,2024.1.5,None,2024-12-03 19h47.10.608187 +0530,
,,,,,,,,,,,,,,,,,,,,,,,,,,,,,,,,,,,,,,,,,,,,,,,,,,,,,,,,,,,,,,,216.5829130000202,216.60032490000594,216.60032490000594,216.60032490000594,224.3075145999901,space,7.69498949998524,None,,,,,,,,,,,,,,,,,,,,,,,,,,,,,,,,,,,,,,,,,,01R,001,2024-12-03_19h46.38.250,SOLO_PROJECT_EXPERIMENT_NUTAN_KAIN_AU2220019,2024.1.5,None,2024-12-03 19h47.10.608187 +0530,
,,,,0,0,0,0,224.46187569998438,,,,,,,,,,,,,,,,,,,,,,,,,,,,,,,,,,,,,,,,,,,,,,,,,,,,,,,,,,,,,,,224.30959479999729,224.46187569998438,224.46187569998438,224.46187569998438,224.46187569998438,224.46187569998438,224.46187569998438,224.46187569998438,0.0028637999785132706,224.46187569998438,225.4558532999945,[-0.05078125],[0.11848958333333333],[1],[0],[0],[1.1445299999904819],[1],['clear_anger'],225.45920370001113,226.0521785999881,0.0008339000050909817,226.0521785999881,226.0521785999881,226.0521785999881,226.0521785999881,226.0521785999881,226.0521785999881,226.0521785999881,228.5025719999685,[0.46484375],[-0.13671875],[1],[0],[0],[3.041693300008774],[1],['clear_anger_main'],,,,01R,001,2024-12-03_19h46.38.250,SOLO_PROJECT_EXPERIMENT_NUTAN_KAIN_AU2220019,2024.1.5,None,2024-12-03 19h47.10.608187 +0530,
,,,,1,0,1,0,228.51676169998245,,,,,,,,,,,,,,,,,,,,,,,,,,,,,,,,,,,,,,,,,,,,,,,,,,,,,,,,,,,,,,,228.50557749997824,228.51676169998245,228.51676169998245,228.51676169998245,228.51676169998245,228.51676169998245,228.51676169998245,228.51676169998245,0.0012184999650344253,228.51676169998245,229.61946449999232,[0.140625],[0.022135416666666668],[1],[0],[0],[1.1120903000119142],[1],['clear_anger'],229.62133559997892,229.63552569999592,0.0008366999682039022,229.63552569999592,229.63552569999592,229.63552569999592,229.63552569999592,229.63552569999592,229.63552569999592,229.63552569999592,231.1652423000196,[0.32421875],[-0.2994791666666667],[1],[0],[0],[1.5424062000238337],[1],['clear_anger_main'],,,,01R,001,2024-12-03_19h46.38.250,SOLO_PROJECT_EXPERIMENT_NUTAN_KAIN_AU2220019,2024.1.5,None,2024-12-03 19h47.10.608187 +0530,
,,,,2,0,2,0,231.18099849997088,,,,,,,,,,,,,,,,,,,,,,,,,,,,,,,,,,,,,,,,,,,,,,,,,,,,,,,,,,,,,,,231.167205500009,231.18099849997088,231.18099849997088,231.18099849997088,231.18099849997088,231.18099849997088,231.18099849997088,231.18099849997088,0.0010566999553702772,231.18099849997088,233.01447479997296,[0.3463541666666667],[0.4270833333333333],[1],[0],[0],[1.8458404000266455],[1],['clear_anger'],233.01594070001738,233.02899720001733,0.0007145999697968364,233.02899720001733,233.02899720001733,233.02899720001733,233.02899720001733,233.02899720001733,233.02899720001733,233.02899720001733,236.37789890001295,[0.46484375],[-0.28125],[1],[0],[0],[3.360603999986779],[],[],,,,01R,001,2024-12-03_19h46.38.250,SOLO_PROJECT_EXPERIMENT_NUTAN_KAIN_AU2220019,2024.1.5,None,2024-12-03 19h47.10.608187 +0530,
,,,,3,0,3,0,236.39225979999173,,,,,,,,,,,,,,,,,,,,,,,,,,,,,,,,,,,,,,,,,,,,,,,,,,,,,,,,,,,,,,,236.3798730999697,236.39225979999173,236.39225979999173,236.39225979999173,236.39225979999173,236.39225979999173,236.39225979999173,236.39225979999173,0.0011217000428587198,236.39225979999173,237.5772820999846,[-0.17057291666666666],[-0.10546875],[1],[0],[0],[1.195730299979914],[1],['clear_anger'],237.57961640000576,237.59198869997635,0.0010654000216163695,237.59198869997635,237.59198869997635,237.59198869997635,237.59198869997635,237.59198869997635,237.59198869997635,237.59198869997635,239.60871830000542,[-0.12109375],[-0.40234375],[1],[0],[0],[2.027354700025171],[1],['clear_anger_main'],,,,01R,001,2024-12-03_19h46.38.250,SOLO_PROJECT_EXPERIMENT_NUTAN_KAIN_AU2220019,2024.1.5,None,2024-12-03 19h47.10.608187 +0530,
,,,,4,0,4,0,239.62249099998735,,,,,,,,,,,,,,,,,,,,,,,,,,,,,,,,,,,,,,,,,,,,,,,,,,,,,,,,,,,,,,,239.61064719996648,239.62249099998735,239.62249099998735,239.62249099998735,239.62249099998735,239.62249099998735,239.62249099998735,239.62249099998735,0.0010842999909073114,239.62249099998735,241.35653180000372,[-0.2734375],[0.0078125],[1],[0],[0],[1.744385100028012],[1],['clear_anger'],241.35798919998342,241.37092109996593,0.0006883000023663044,241.37092109996593,241.37092109996593,241.37092109996593,241.37092109996593,241.37092109996593,241.37092109996593,241.37092109996593,243.5205105000059,[0.17447916666666666],[0.2604166666666667],[1],[0],[0],[2.1611566999927163],[1],['clear_anger_main'],,,,01R,001,2024-12-03_19h46.38.250,SOLO_PROJECT_EXPERIMENT_NUTAN_KAIN_AU2220019,2024.1.5,None,2024-12-03 19h47.10.608187 +0530,
,,,,5,0,5,0,243.5374226999702,,,,,,,,,,,,,,,,,,,,,,,,,,,,,,,,,,,,,,,,,,,,,,,,,,,,,,,,,,,,,,,243.52256369998213,243.5374226999702,243.5374226999702,243.5374226999702,243.5374226999702,243.5374226999702,243.5374226999702,243.5374226999702,0.0011226999922655523,243.5374226999702,244.6857186999987,[0.08463541666666667],[0.3567708333333333],[1],[0],[0],[1.1614668000256643],[1],['clear_anger'],244.6872035000124,244.70099889999256,0.0006636999896727502,244.70099889999256,244.70099889999256,244.70099889999256,244.70099889999256,244.70099889999256,244.70099889999256,244.70099889999256,246.21836860000622,[-0.328125],[0.3098958333333333],[1],[0],[0],[1.5296143000014126],[1],['clear_anger_main'],,,,01R,001,2024-12-03_19h46.38.250,SOLO_PROJECT_EXPERIMENT_NUTAN_KAIN_AU2220019,2024.1.5,None,2024-12-03 19h47.10.608187 +0530,
,,,,6,0,6,0,246.23448669997742,,,,,,,,,,,,,,,,,,,,,,,,,,,,,,,,,,,,,,,,,,,,,,,,,,,,,,,,,,,,,,,246.22165269998368,246.23448669997742,246.23448669997742,246.23448669997742,246.23448669997742,246.23448669997742,246.23448669997742,246.23448669997742,0.0016727999900467694,246.23448669997742,247.2173612000188,[-0.28125],[0.140625],[1],[0],[0],[0.9938778000068851],[1],['clear_anger'],247.21878469997318,247.23155169998063,0.0006701000384055078,247.23155169998063,247.23155169998063,247.23155169998063,247.23155169998063,247.23155169998063,247.23155169998063,247.23155169998063,250.28107570001157,[-0.20442708333333334],[-0.048177083333333336],[1],[0],[0],[3.06103099999018],[1],['clear_anger_main'],,,,01R,001,2024-12-03_19h46.38.250,SOLO_PROJECT_EXPERIMENT_NUTAN_KAIN_AU2220019,2024.1.5,None,2024-12-03 19h47.10.608187 +0530,
,,,,7,0,7,0,250.29539099999238,,,,,,,,,,,,,,,,,,,,,,,,,,,,,,,,,,,,,,,,,,,,,,,,,,,,,,,,,,,,,,,250.28281589999096,250.29539099999238,250.29539099999238,250.29539099999238,250.29539099999238,250.29539099999238,250.29539099999238,250.29539099999238,0.000970599998254329,250.29539099999238,251.59709669998847,[-0.00390625],[-0.17057291666666666],[1],[0],[0],[1.3128247000277042],[1],['clear_anger'],251.59889259998454,251.6105570999789,0.000714499969035387,251.6105570999789,251.6105570999789,251.6105570999789,251.6105570999789,251.6105570999789,251.6105570999789,251.6105570999789,253.8441372999805,[0.28515625],[-0.41015625],[1],[0],[0],[2.2437360000330955],[1],['clear_anger_main'],,,,01R,001,2024-12-03_19h46.38.250,SOLO_PROJECT_EXPERIMENT_NUTAN_KAIN_AU2220019,2024.1.5,None,2024-12-03 19h47.10.608187 +0530,
,,,,8,0,8,0,253.85833540000021,,,,,,,,,,,,,,,,,,,,,,,,,,,,,,,,,,,,,,,,,,,,,,,,,,,,,,,,,,,,,,,253.84654519998003,253.85833540000021,253.85833540000021,253.85833540000021,253.85833540000021,253.85833540000021,253.85833540000021,253.85833540000021,0.0012229999992996454,253.85833540000021,254.82720090000657,[-0.026041666666666668],[0.16015625],[1],[0],[0],[0.9790327999508008],[1],['clear_anger'],254.8288951999857,254.84102190000704,0.0007894000154919922,254.84102190000704,254.84102190000704,254.84102190000704,254.84102190000704,254.84102190000704,254.84102190000704,254.84102190000704,257.3407595999888,[0.3763020833333333],[0.3697916666666667],[1],[0],[0],[2.510465800005477],[1],['clear_anger_main'],,,,01R,001,2024-12-03_19h46.38.250,SOLO_PROJECT_EXPERIMENT_NUTAN_KAIN_AU2220019,2024.1.5,None,2024-12-03 19h47.10.608187 +0530,
,,,,9,0,9,0,257.35524090001127,,,,,,,,,,,,,,,,,,,,,,,,,,,,,,,,,,,,,,,,,,,,,,,,,,,,,,,,,,,,,,,257.34267899999395,257.35524090001127,257.35524090001127,257.35524090001127,257.35524090001127,257.35524090001127,257.35524090001127,257.35524090001127,0.0010797000140883029,257.35524090001127,258.954799500003,[0.11067708333333333],[0.27734375],[1],[0],[0],[1.610782100004144],[1],['clear_anger'],258.95597239997005,258.9701878000051,0.00046519999159500003,258.9701878000051,258.9701878000051,258.9701878000051,258.9701878000051,258.9701878000051,258.9701878000051,258.9701878000051,261.00397570000496,[0.1796875],[-0.3567708333333333],[1],[0],[0],[2.0467038999777287],[1],['clear_anger_main'],,,,01R,001,2024-12-03_19h46.38.250,SOLO_PROJECT_EXPERIMENT_NUTAN_KAIN_AU2220019,2024.1.5,None,2024-12-03 19h47.10.608187 +0530,
,,,,10,0,10,0,261.0183091000072,,,,,,,,,,,,,,,,,,,,,,,,,,,,,,,,,,,,,,,,,,,,,,,,,,,,,,,,,,,,,,,261.0061653999728,261.0183091000072,261.0183091000072,261.0183091000072,261.0183091000072,261.0183091000072,261.0183091000072,261.0183091000072,0.0011349000269547105,261.0183091000072,262.605169699993,[0.08072916666666667],[-0.1875],[1],[0],[0],[1.5972044000518508],[1],['clear_anger'],262.6079113999731,262.62059499998577,0.001094500010367483,262.62059499998577,262.62059499998577,262.62059499998577,262.62059499998577,262.62059499998577,262.62059499998577,262.62059499998577,264.7673761000042,[0.2421875],[0.21614583333333334],[1],[0],[0],[2.1576465000398457],[1],['clear_anger_main'],,,,01R,001,2024-12-03_19h46.38.250,SOLO_PROJECT_EXPERIMENT_NUTAN_KAIN_AU2220019,2024.1.5,None,2024-12-03 19h47.10.608187 +0530,
,,,,11,0,11,0,264.78176400001394,,,,,,,,,,,,,,,,,,,,,,,,,,,,,,,,,,,,,,,,,,,,,,,,,,,,,,,,,,,,,,,264.7700025999802,264.78176400001394,264.78176400001394,264.78176400001394,264.78176400001394,264.78176400001394,264.78176400001394,264.78176400001394,0.001402399968355894,264.78176400001394,266.08269189996645,[0.24479166666666666],[0.01953125],[1],[0],[0],[1.3110361999715678],[1],['clear_anger'],266.08428020001156,266.09605880000163,0.0008199000149033964,266.09605880000163,266.09605880000163,266.09605880000163,266.09605880000163,266.09605880000163,266.09605880000163,266.09605880000163,267.6644377000048,[-0.2981770833333333],[0.4361979166666667],[1],[0],[0],[1.5786761999479495],[1],['clear_anger_main'],,,,01R,001,2024-12-03_19h46.38.250,SOLO_PROJECT_EXPERIMENT_NUTAN_KAIN_AU2220019,2024.1.5,None,2024-12-03 19h47.10.608187 +0530,
,,,,12,0,12,0,267.67828039999586,,,,,,,,,,,,,,,,,,,,,,,,,,,,,,,,,,,,,,,,,,,,,,,,,,,,,,,,,,,,,,,267.6665286999778,267.67828039999586,267.67828039999586,267.67828039999586,267.67828039999586,267.67828039999586,267.67828039999586,267.67828039999586,0.0011741999769583344,267.67828039999586,269.5125342999818,[0.109375],[-0.44921875],[1],[0],[0],[1.8440335000050254],[1],['clear_anger'],269.5155490000034,269.5271216999972,0.0010905999806709588,269.5271216999972,269.5271216999972,269.5271216999972,269.5271216999972,269.5271216999972,269.5271216999972,269.5271216999972,270.6612897000159,[-0.3111979166666667],[0.3802083333333333],[1],[0],[0],[1.1438555999775417],[1],['clear_anger_main'],,,,01R,001,2024-12-03_19h46.38.250,SOLO_PROJECT_EXPERIMENT_NUTAN_KAIN_AU2220019,2024.1.5,None,2024-12-03 19h47.10.608187 +0530,
,,,,13,0,13,0,270.67497980000917,,,,,,,,,,,,,,,,,,,,,,,,,,,,,,,,,,,,,,,,,,,,,,,,,,,,,,,,,,,,,,,270.66353770002024,270.67497980000917,270.67497980000917,270.67497980000917,270.67497980000917,270.67497980000917,270.67497980000917,270.67497980000917,0.0010870000114664435,270.67497980000917,273.5238410999882,[0.13411458333333334],[0.16536458333333334],[1],[0],[0],[2.8590036000241525],[1],['clear_anger'],273.5250019999803,273.5393286999897,0.00044700002763420343,273.5393286999897,273.5393286999897,273.5393286999897,273.5393286999897,273.5393286999897,273.5393286999897,273.5393286999897,275.4063081999775,[0.484375],[0.2578125],[1],[0],[0],[1.8801227000076324],[1],['clear_anger_main'],,,,01R,001,2024-12-03_19h46.38.250,SOLO_PROJECT_EXPERIMENT_NUTAN_KAIN_AU2220019,2024.1.5,None,2024-12-03 19h47.10.608187 +0530,
,,,,14,0,14,0,275.42031840002164,,,,,,,,,,,,,,,,,,,,,,,,,,,,,,,,,,,,,,,,,,,,,,,,,,,,,,,,,,,,,,,275.40866249997634,275.42031840002164,275.42031840002164,275.42031840002164,275.42031840002164,275.42031840002164,275.42031840002164,275.42031840002164,0.0011122999712824821,275.42031840002164,278.3871440999792,[0.020833333333333332],[-0.22005208333333334],[1],[0],[0],[2.9766840999946],[1],['clear_anger'],278.38922720000846,278.40097630000673,0.0007967000128701329,278.40097630000673,278.40097630000673,278.40097630000673,278.40097630000673,278.40097630000673,278.40097630000673,278.40097630000673,282.03376700001536,[0.2721354166666667],[0.3424479166666667],[1],[0],[0],[3.6430276000173762],[],[],,,,01R,001,2024-12-03_19h46.38.250,SOLO_PROJECT_EXPERIMENT_NUTAN_KAIN_AU2220019,2024.1.5,None,2024-12-03 19h47.10.608187 +0530,
,,,,15,0,15,0,282.04729740001494,,,,,,,,,,,,,,,,,,,,,,,,,,,,,,,,,,,,,,,,,,,,,,,,,,,,,,,,,,,,,,,282.0359457000159,282.04729740001494,282.04729740001494,282.04729740001494,282.04729740001494,282.04729740001494,282.04729740001494,282.04729740001494,0.001292400003876537,282.04729740001494,283.6478820000193,[0.16015625],[-0.171875],[1],[0],[0],[1.6104755999986082],[1],['clear_anger'],283.64902309997706,283.6653007999994,0.0005521000130102038,283.6653007999994,283.6653007999994,283.6653007999994,283.6653007999994,283.6653007999994,283.6653007999994,283.6653007999994,285.24824829999125,[-0.5013020833333334],[-0.30859375],[1],[0],[0],[1.5979565999587066],[1],['clear_anger_main'],,,,01R,001,2024-12-03_19h46.38.250,SOLO_PROJECT_EXPERIMENT_NUTAN_KAIN_AU2220019,2024.1.5,None,2024-12-03 19h47.10.608187 +0530,
,,,,16,0,16,0,285.26136439997936,,,,,,,,,,,,,,,,,,,,,,,,,,,,,,,,,,,,,,,,,,,,,,,,,,,,,,,,,,,,,,,285.25064619997283,285.26136439997936,285.26136439997936,285.26136439997936,285.26136439997936,285.26136439997936,285.26136439997936,285.26136439997936,0.0011428999714553356,285.26136439997936,286.7783608000027,[0.22265625],[-0.07552083333333333],[1],[0],[0],[1.5261145000113174],[1],['clear_anger'],286.7801376999705,286.79269490001025,0.0007631999906152487,286.79269490001025,286.79269490001025,286.79269490001025,286.79269490001025,286.79269490001025,286.79269490001025,286.79269490001025,288.47695179999573,[-0.4921875],[0.30078125],[1],[0],[0],[1.6952572999871336],[1],['clear_anger_main'],,,,01R,001,2024-12-03_19h46.38.250,SOLO_PROJECT_EXPERIMENT_NUTAN_KAIN_AU2220019,2024.1.5,None,2024-12-03 19h47.10.608187 +0530,
,,,,17,0,17,0,288.49136489996454,,,,,,,,,,,,,,,,,,,,,,,,,,,,,,,,,,,,,,,,,,,,,,,,,,,,,,,,,,,,,,,288.47950229997514,288.49136489996454,288.49136489996454,288.49136489996454,288.49136489996454,288.49136489996454,288.49136489996454,288.49136489996454,0.0012206999817863107,288.49136489996454,290.47454409999773,[0.2734375],[-0.21484375],[1],[0],[0],[1.9936709000030532],[1],['clear_anger'],290.4757141000009,290.48881539999275,0.0005548999761231244,290.48881539999275,290.48881539999275,290.48881539999275,290.48881539999275,290.48881539999275,290.48881539999275,290.48881539999275,292.6895405999967,[-0.109375],[-0.19921875],[1],[0],[0],[2.212587399990298],[1],['clear_anger_main'],,,,01R,001,2024-12-03_19h46.38.250,SOLO_PROJECT_EXPERIMENT_NUTAN_KAIN_AU2220019,2024.1.5,None,2024-12-03 19h47.10.608187 +0530,
,,,,18,0,18,0,292.7039181999862,,,,,,,,,,,,,,,,,,,,,,,,,,,,,,,,,,,,,,,,,,,,,,,,,,,,,,,,,,,,,,,292.69148089998635,292.7039181999862,292.7039181999862,292.7039181999862,292.7039181999862,292.7039181999862,292.7039181999862,292.7039181999862,0.0009511999669484794,292.7039181999862,293.7380268999841,[-0.053385416666666664],[0.18880208333333334],[1],[0],[0],[1.0451138999778777],[1],['clear_anger'],293.7396764999721,293.75300710002193,0.0007242999854497612,293.75300710002193,293.75300710002193,293.75300710002193,293.75300710002193,293.75300710002193,293.75300710002193,293.75300710002193,296.3703263999778,[-0.30078125],[-0.13932291666666666],[1],[0],[0],[2.62907709996216],[1],['clear_anger_main'],,,,01R,001,2024-12-03_19h46.38.250,SOLO_PROJECT_EXPERIMENT_NUTAN_KAIN_AU2220019,2024.1.5,None,2024-12-03 19h47.10.608187 +0530,
,,,,19,0,19,0,296.38352470000973,,,,,,,,,,,,,,,,,,,,,,,,,,,,,,,,,,,,,,,,,,,,,,,,,,,,,,,,,,,,,,,296.3726370999939,296.38352470000973,296.38352470000973,296.38352470000973,296.38352470000973,296.38352470000973,296.38352470000973,296.38352470000973,0.0012565000215545297,296.38352470000973,297.38452179997694,[-0.2526041666666667],[-0.016927083333333332],[1],[0],[0],[1.0101704000262544],[1],['clear_anger'],297.38607279997086,297.39937060000375,0.0006056000129319727,297.39937060000375,297.39937060000375,297.39937060000375,297.39937060000375,297.39937060000375,297.39937060000375,297.39937060000375,300.0825020999764,[-0.024739583333333332],[-0.2708333333333333],[1],[0],[0],[2.6951357999932952],[1],['clear_anger_main'],,,,01R,001,2024-12-03_19h46.38.250,SOLO_PROJECT_EXPERIMENT_NUTAN_KAIN_AU2220019,2024.1.5,None,2024-12-03 19h47.10.608187 +0530,
,,,,20,0,20,0,300.0963649000041,,,,,,,,,,,,,,,,,,,,,,,,,,,,,,,,,,,,,,,,,,,,,,,,,,,,,,,,,,,,,,,300.0843315999955,300.0963649000041,300.0963649000041,300.0963649000041,300.0963649000041,300.0963649000041,300.0963649000041,300.0963649000041,0.0009665999677963555,300.0963649000041,301.74650259997,[0.10546875],[-0.23567708333333334],[1],[0],[0],[1.6609588999999687],[1],['clear_anger'],301.7479086999665,301.76157630002126,0.0005608999636024237,301.76157630002126,301.76157630002126,301.76157630002126,301.76157630002126,301.76157630002126,301.76157630002126,301.76157630002126,303.0299016999779,[-0.16145833333333334],[0.09635416666666667],[1],[0],[0],[1.280724000011105],[1],['clear_anger_main'],,,,01R,001,2024-12-03_19h46.38.250,SOLO_PROJECT_EXPERIMENT_NUTAN_KAIN_AU2220019,2024.1.5,None,2024-12-03 19h47.10.608187 +0530,
,,,,21,0,21,0,303.0433172999765,,,,,,,,,,,,,,,,,,,,,,,,,,,,,,,,,,,,,,,,,,,,,,,,,,,,,,,,,,,,,,,303.03192879998824,303.0433172999765,303.0433172999765,303.0433172999765,303.0433172999765,303.0433172999765,303.0433172999765,303.0433172999765,0.001144499983638525,303.0433172999765,307.0748207999859,[-0.026041666666666668],[0.15234375],[1],[0],[0],[4.041441500012297],[1],['clear_anger'],307.07591119996505,307.0897132999962,0.00047170004108920693,307.0897132999962,307.0897132999962,307.0897132999962,307.0897132999962,307.0897132999962,307.0897132999962,307.0897132999962,308.00772049999796,[-0.19661458333333334],[0.29296875],[1],[0],[0],[0.9306316999718547],[1],['clear_anger_main'],,,,01R,001,2024-12-03_19h46.38.250,SOLO_PROJECT_EXPERIMENT_NUTAN_KAIN_AU2220019,2024.1.5,None,2024-12-03 19h47.10.608187 +0530,
,,,,22,0,22,0,308.02201850002166,,,,,,,,,,,,,,,,,,,,,,,,,,,,,,,,,,,,,,,,,,,,,,,,,,,,,,,,,,,,,,,308.00993060000474,308.02201850002166,308.02201850002166,308.02201850002166,308.02201850002166,308.02201850002166,308.02201850002166,308.02201850002166,0.0011468000011518598,308.02201850002166,308.8901362000033,[-0.2825520833333333],[0.23307291666666666],[1],[0],[0],[0.8786867999588139],[1],['clear_anger'],308.892001900007,308.90491119999206,0.0006683000246994197,308.90491119999206,308.90491119999206,308.90491119999206,308.90491119999206,308.90491119999206,308.90491119999206,308.90491119999206,311.00433819997124,[-0.09244791666666667],[-0.265625],[1],[0],[0],[2.1110252999933437],[1],['clear_anger_main'],,,,01R,001,2024-12-03_19h46.38.250,SOLO_PROJECT_EXPERIMENT_NUTAN_KAIN_AU2220019,2024.1.5,None,2024-12-03 19h47.10.608187 +0530,
,,,,23,0,23,0,311.01874560001306,,,,,,,,,,,,,,,,,,,,,,,,,,,,,,,,,,,,,,,,,,,,,,,,,,,,,,,,,,,,,,,311.006387499976,311.01874560001306,311.01874560001306,311.01874560001306,311.01874560001306,311.01874560001306,311.01874560001306,311.01874560001306,0.0011335000162944198,311.01874560001306,312.370663699985,[-0.018229166666666668],[0.13932291666666666],[1],[0],[0],[1.3627584000350907],[1],['clear_anger'],312.3723581999657,312.3842413999955,0.0007930999854579568,312.3842413999955,312.3842413999955,312.3842413999955,312.3842413999955,312.3842413999955,312.3842413999955,312.3842413999955,314.5212871999829,[0.2903645833333333],[0.24479166666666666],[1],[0],[0],[2.1470490000210702],[1],['clear_anger_main'],,,,01R,001,2024-12-03_19h46.38.250,SOLO_PROJECT_EXPERIMENT_NUTAN_KAIN_AU2220019,2024.1.5,None,2024-12-03 19h47.10.608187 +0530,
,,,,24,0,24,0,314.542638599989,,,,,,,,,,,,,,,,,,,,,,,,,,,,,,,,,,,,,,,,,,,,,,,,,,,,,,,,,,,,,,,314.5241523999721,314.542638599989,314.542638599989,314.542638599989,314.542638599989,314.542638599989,314.542638599989,314.542638599989,0.001643399999011308,314.542638599989,316.26644430001033,[-0.3411458333333333],[-0.4296875],[1],[0],[0],[1.7401299999910407],[1],['clear_anger'],316.26866210001754,316.2807948999689,0.000901099992915988,316.2807948999689,316.2807948999689,316.2807948999689,316.2807948999689,316.2807948999689,316.2807948999689,316.2807948999689,320.1117446999997,[-0.0026041666666666665],[-0.33203125],[1],[0],[0],[3.8415444000274874],[1],['clear_anger_main'],,,,01R,001,2024-12-03_19h46.38.250,SOLO_PROJECT_EXPERIMENT_NUTAN_KAIN_AU2220019,2024.1.5,None,2024-12-03 19h47.10.608187 +0530,
,,,,25,0,25,0,320.1269184999983,,,,,,,,,,,,,,,,,,,,,,,,,,,,,,,,,,,,,,,,,,,,,,,,,,,,,,,,,,,,,,,320.1138522999827,320.1269184999983,320.1269184999983,320.1269184999983,320.1269184999983,320.1269184999983,320.1269184999983,320.1269184999983,0.0010732000228017569,320.1269184999983,322.9924185000127,[0.3424479166666667],[0.45703125],[1],[0],[0],[2.8771815999643877],[1],['clear_anger'],322.99376460001804,323.00742089998676,0.0006433999515138566,323.00742089998676,323.00742089998676,323.00742089998676,323.00742089998676,323.00742089998676,323.00742089998676,323.00742089998676,324.17547630000627,[-0.171875],[-0.12890625],[1],[0],[0],[1.1804655999876559],[1],['clear_anger_main'],,,,01R,001,2024-12-03_19h46.38.250,SOLO_PROJECT_EXPERIMENT_NUTAN_KAIN_AU2220019,2024.1.5,None,2024-12-03 19h47.10.608187 +0530,
,,,,26,0,26,0,324.1898585999734,,,,,,,,,,,,,,,,,,,,,,,,,,,,,,,,,,,,,,,,,,,,,,,,,,,,,,,,,,,,,,,324.1775116000208,324.1898585999734,324.1898585999734,324.1898585999734,324.1898585999734,324.1898585999734,324.1898585999734,324.1898585999734,0.0010856000008061528,324.1898585999734,325.5064762000111,[0.4791666666666667],[0.31640625],[1],[0],[0],[1.3276304000173695],[1],['clear_anger'],325.50757379998686,325.5218291999772,0.00047560001257807016,325.5218291999772,325.5218291999772,325.5218291999772,325.5218291999772,325.5218291999772,325.5218291999772,325.5218291999772,327.3213911000057,[0.171875],[0.2630208333333333],[1],[0],[0],[1.81270280003082],[1],['clear_anger_main'],,,,01R,001,2024-12-03_19h46.38.250,SOLO_PROJECT_EXPERIMENT_NUTAN_KAIN_AU2220019,2024.1.5,None,2024-12-03 19h47.10.608187 +0530,
,,,,27,0,27,0,327.3365687999758,,,,,,,,,,,,,,,,,,,,,,,,,,,,,,,,,,,,,,,,,,,,,,,,,,,,,,,,,,,,,,,327.3232416000101,327.3365687999758,327.3365687999758,327.3365687999758,327.3365687999758,327.3365687999758,327.3365687999758,327.3365687999758,0.0010477000032551587,327.3365687999758,328.22124320000876,[-0.036458333333333336],[0.14192708333333334],[1],[0],[0],[0.8966195000102744],[1],['clear_anger'],328.22273430001223,328.2355730999843,0.0006566999945789576,328.2355730999843,328.2355730999843,328.2355730999843,328.2355730999843,328.2355730999843,328.2355730999843,328.2355730999843,330.8010376999737,[0.2890625],[0.28125],[1],[0],[0],[2.577046699996572],[1],['clear_anger_main'],,,,01R,001,2024-12-03_19h46.38.250,SOLO_PROJECT_EXPERIMENT_NUTAN_KAIN_AU2220019,2024.1.5,None,2024-12-03 19h47.10.608187 +0530,
,,,,28,0,28,0,330.81596939999145,,,,,,,,,,,,,,,,,,,,,,,,,,,,,,,,,,,,,,,,,,,,,,,,,,,,,,,,,,,,,,,330.80305639997823,330.81596939999145,330.81596939999145,330.81596939999145,330.81596939999145,330.81596939999145,330.81596939999145,330.81596939999145,0.0011091000051237643,330.81596939999145,332.88246880000224,[-0.12890625],[-0.3880208333333333],[1],[0],[0],[2.077895099995658],[1],['clear_anger'],332.88414039998315,332.8980845999904,0.0008213999681174755,332.8980845999904,332.8980845999904,332.8980845999904,332.8980845999904,332.8980845999904,332.8980845999904,332.8980845999904,335.4971656000125,[-0.3424479166666667],[0.08984375],[1],[0],[0],[2.611589499982074],[1],['clear_anger_main'],,,,01R,001,2024-12-03_19h46.38.250,SOLO_PROJECT_EXPERIMENT_NUTAN_KAIN_AU2220019,2024.1.5,None,2024-12-03 19h47.10.608187 +0530,
,,,,29,0,29,0,335.5116430000053,,,,,,,,,,,,,,,,,,,,,,,,,,,,,,,,,,,,,,,,,,,,,,,,,,,,,,,,,,,,,,,335.4990402999683,335.5116430000053,335.5116430000053,335.5116430000053,335.5116430000053,335.5116430000053,335.5116430000053,335.5116430000053,0.0010535999899730086,335.5116430000053,336.57915980002144,[-0.3606770833333333],[0.10546875],[1],[0],[0],[1.0787013999652117],[1],['clear_anger'],336.58056620002026,336.59417320002103,0.0007035000016912818,336.59417320002103,336.59417320002103,336.59417320002103,336.59417320002103,336.59417320002103,336.59417320002103,336.59417320002103,337.5610321999993,[-0.3828125],[0.18880208333333334],[1],[0],[0],[0.9791362000396475],[1],['clear_anger_main'],,,,01R,001,2024-12-03_19h46.38.250,SOLO_PROJECT_EXPERIMENT_NUTAN_KAIN_AU2220019,2024.1.5,None,2024-12-03 19h47.10.608187 +0530,
,,,,30,0,30,0,337.57607110001845,,,,,,,,,,,,,,,,,,,,,,,,,,,,,,,,,,,,,,,,,,,,,,,,,,,,,,,,,,,,,,,337.5630303999642,337.57607110001845,337.57607110001845,337.57607110001845,337.57607110001845,337.57607110001845,337.57607110001845,337.57607110001845,0.0011044000275433064,337.57607110001845,338.9271355000092,[0.328125],[0.19140625],[1],[0],[0],[1.3625870000105351],[1],['clear_anger'],338.9288932000054,338.94214870000724,0.0008153000380843878,338.94214870000724,338.94214870000724,338.94214870000724,338.94214870000724,338.94214870000724,338.94214870000724,338.94214870000724,340.5281734999735,[-0.13932291666666666],[0.0859375],[1],[0],[0],[1.5975263000000268],[1],['clear_anger_main'],,,,01R,001,2024-12-03_19h46.38.250,SOLO_PROJECT_EXPERIMENT_NUTAN_KAIN_AU2220019,2024.1.5,None,2024-12-03 19h47.10.608187 +0530,
,,,,31,0,31,0,340.54452300001867,,,,,,,,,,,,,,,,,,,,,,,,,,,,,,,,,,,,,,,,,,,,,,,,,,,,,,,,,,,,,,,340.5315166999935,340.54452300001867,340.54452300001867,340.54452300001867,340.54452300001867,340.54452300001867,340.54452300001867,340.54452300001867,0.0016180999809876084,340.54452300001867,341.5431554999668,[-0.3216145833333333],[-0.059895833333333336],[1],[0],[0],[1.0093498000060208],[1],['clear_anger'],341.5449684999767,341.5576078000013,0.000812100013718009,341.5576078000013,341.5576078000013,341.5576078000013,341.5576078000013,341.5576078000013,341.5576078000013,341.5576078000013,343.6721347999992,[-0.4609375],[0.4153645833333333],[1],[0],[0],[2.125527399999555],[1],['clear_anger_main'],,,,01R,001,2024-12-03_19h46.38.250,SOLO_PROJECT_EXPERIMENT_NUTAN_KAIN_AU2220019,2024.1.5,None,2024-12-03 19h47.10.608187 +0530,
,,,,32,0,32,0,343.68719510000665,,,,,,,,,,,,,,,,,,,,,,,,,,,,,,,,,,,,,,,,,,,,,,,,,,,,,,,,,,,,,,,343.67432629998075,343.68719510000665,343.68719510000665,343.68719510000665,343.68719510000665,343.68719510000665,343.68719510000665,343.68719510000665,0.001272300025448203,343.68719510000665,344.8888062000042,[-0.18489583333333334],[-0.08723958333333333],[1],[0],[0],[1.2128843999817036],[1],['clear_anger'],344.8904298999696,344.9022702999646,0.0007402999908663332,344.9022702999646,344.9022702999646,344.9022702999646,344.9022702999646,344.9022702999646,344.9022702999646,344.9022702999646,346.1032353999908,[-0.38671875],[0.3385416666666667],[1],[0],[0],[1.211355099978391],[1],['clear_anger_main'],,,,01R,001,2024-12-03_19h46.38.250,SOLO_PROJECT_EXPERIMENT_NUTAN_KAIN_AU2220019,2024.1.5,None,2024-12-03 19h47.10.608187 +0530,
,,,,33,0,33,0,346.1177752999938,,,,,,,,,,,,,,,,,,,,,,,,,,,,,,,,,,,,,,,,,,,,,,,,,,,,,,,,,,,,,,,346.10546910000267,346.1177752999938,346.1177752999938,346.1177752999938,346.1177752999938,346.1177752999938,346.1177752999938,346.1177752999938,0.0011370000429451466,346.1177752999938,348.16909609996947,[-0.40625],[-0.4166666666666667],[1],[0],[0],[2.061924700043164],[1],['clear_anger'],348.17140320001636,348.1831227999646,0.0008726000087335706,348.1831227999646,348.1831227999646,348.1831227999646,348.1831227999646,348.1831227999646,348.1831227999646,348.1831227999646,350.49861910002073,[0.109375],[-0.16015625],[1],[0],[0],[2.3257631000014953],[1],['clear_anger_main'],,,,01R,001,2024-12-03_19h46.38.250,SOLO_PROJECT_EXPERIMENT_NUTAN_KAIN_AU2220019,2024.1.5,None,2024-12-03 19h47.10.608187 +0530,
,,,,34,0,34,0,350.51391669997247,,,,,,,,,,,,,,,,,,,,,,,,,,,,,,,,,,,,,,,,,,,,,,,,,,,,,,,,,,,,,,,350.5001908999984,350.51391669997247,350.51391669997247,350.51391669997247,350.51391669997247,350.51391669997247,350.51391669997247,350.51391669997247,0.0007874000002630055,350.51391669997247,351.6982734000194,[-0.15885416666666666],[0.15625],[1],[0],[0],[1.1968454999732785],[1],['clear_anger'],351.69964730000356,351.7125046000001,0.0006486999918706715,351.7125046000001,351.7125046000001,351.7125046000001,351.7125046000001,351.7125046000001,351.7125046000001,351.7125046000001,354.1797582000145,[-0.4947916666666667],[-0.041666666666666664],[1],[0],[0],[2.4788707999978215],[1],['clear_anger_main'],,,,01R,001,2024-12-03_19h46.38.250,SOLO_PROJECT_EXPERIMENT_NUTAN_KAIN_AU2220019,2024.1.5,None,2024-12-03 19h47.10.608187 +0530,
,,,,35,0,35,0,354.1934278999688,,,,,,,,,,,,,,,,,,,,,,,,,,,,,,,,,,,,,,,,,,,,,,,,,,,,,,,,,,,,,,,354.18165139999473,354.1934278999688,354.1934278999688,354.1934278999688,354.1934278999688,354.1934278999688,354.1934278999688,354.1934278999688,0.0010940000065602362,354.1934278999688,355.82774400000926,[0.20833333333333334],[-0.22786458333333334],[1],[0],[0],[1.6445133999804966],[1],['clear_anger'],355.82948139996734,355.84218019997934,0.0007134999614208937,355.84218019997934,355.84218019997934,355.84218019997934,355.84218019997934,355.84218019997934,355.84218019997934,355.84218019997934,357.2101861999836,[-0.2786458333333333],[0.20833333333333334],[1],[0],[0],[1.3791690000216477],[1],['clear_anger_main'],,,,01R,001,2024-12-03_19h46.38.250,SOLO_PROJECT_EXPERIMENT_NUTAN_KAIN_AU2220019,2024.1.5,None,2024-12-03 19h47.10.608187 +0530,
,,,,36,0,36,0,357.2242745999829,,,,,,,,,,,,,,,,,,,,,,,,,,,,,,,,,,,,,,,,,,,,,,,,,,,,,,,,,,,,,,,357.2127795999986,357.2242745999829,357.2242745999829,357.2242745999829,357.2242745999829,357.2242745999829,357.2242745999829,357.2242745999829,0.0012350999750196934,357.2242745999829,359.84138739999617,[0.18619791666666666],[-0.4596354166666667],[1],[0],[0],[2.626845700026024],[1],['clear_anger'],359.84333880001213,359.8548953999998,0.0008597000269219279,359.8548953999998,359.8548953999998,359.8548953999998,359.8548953999998,359.8548953999998,359.8548953999998,359.8548953999998,365.2176501000067,[-0.14322916666666666],[0.3138020833333333],[1],[0],[0],[5.37266069999896],[],[],,,,01R,001,2024-12-03_19h46.38.250,SOLO_PROJECT_EXPERIMENT_NUTAN_KAIN_AU2220019,2024.1.5,None,2024-12-03 19h47.10.608187 +0530,
,,,,37,0,37,0,365.2327509999741,,,,,,,,,,,,,,,,,,,,,,,,,,,,,,,,,,,,,,,,,,,,,,,,,,,,,,,,,,,,,,,365.2201745000202,365.2327509999741,365.2327509999741,365.2327509999741,365.2327509999741,365.2327509999741,365.2327509999741,365.2327509999741,0.0012034000246785581,365.2327509999741,366.55044580000686,[0.4401041666666667],[-0.11328125],[1],[0],[0],[1.3287015000241809],[1],['clear_anger'],366.55223410000326,366.5646745999693,0.0008425000123679638,366.5646745999693,366.5646745999693,366.5646745999693,366.5646745999693,366.5646745999693,366.5646745999693,366.5646745999693,367.96543969999766,[-0.4596354166666667],[0.234375],[1],[0],[0],[1.4116244000033475],[1],['clear_anger_main'],,,,01R,001,2024-12-03_19h46.38.250,SOLO_PROJECT_EXPERIMENT_NUTAN_KAIN_AU2220019,2024.1.5,None,2024-12-03 19h47.10.608187 +0530,
,,,,38,0,38,0,367.979799099965,,,,,,,,,,,,,,,,,,,,,,,,,,,,,,,,,,,,,,,,,,,,,,,,,,,,,,,,,,,,,,,367.9675303999684,367.979799099965,367.979799099965,367.979799099965,367.979799099965,367.979799099965,367.979799099965,367.979799099965,0.0011438000365160406,367.979799099965,369.5794737999677,[-0.2630208333333333],[-0.2578125],[1],[0],[0],[1.6105539000127465],[1],['clear_anger'],369.58098689996405,369.5952651000116,0.0005791999865323305,369.5952651000116,369.5952651000116,369.5952651000116,369.5952651000116,369.5952651000116,369.5952651000116,369.5952651000116,375.70842410001205,[-0.21875],[-0.0234375],[1],[0],[0],[6.1261228999937885],[],[],,,,01R,001,2024-12-03_19h46.38.250,SOLO_PROJECT_EXPERIMENT_NUTAN_KAIN_AU2220019,2024.1.5,None,2024-12-03 19h47.10.608187 +0530,
,,,,39,0,39,0,375.7220842000097,,,,,,,,,,,,,,,,,,,,,,,,,,,,,,,,,,,,,,,,,,,,,,,,,,,,,,,,,,,,,,,375.71058159996755,375.7220842000097,375.7220842000097,375.7220842000097,375.7220842000097,375.7220842000097,375.7220842000097,375.7220842000097,0.0011907999869436026,375.7220842000097,377.7902585999691,[0.19270833333333334],[0.3763020833333333],[1],[0],[0],[2.078095000004396],[1],['clear_anger'],377.7919014999643,377.80330959998537,0.0008071999764069915,377.80330959998537,377.80330959998537,377.80330959998537,377.80330959998537,377.80330959998537,377.80330959998537,377.80330959998537,381.0183299999917,[0.010416666666666666],[-0.18880208333333334],[1],[0],[0],[3.225035500014201],[1],['clear_anger_main'],,,,01R,001,2024-12-03_19h46.38.250,SOLO_PROJECT_EXPERIMENT_NUTAN_KAIN_AU2220019,2024.1.5,None,2024-12-03 19h47.10.608187 +0530,
,,,,40,0,40,0,381.0339844999835,,,,,,,,,,,,,,,,,,,,,,,,,,,,,,,,,,,,,,,,,,,,,,,,,,,,,,,,,,,,,,,381.0201149000204,381.0339844999835,381.0339844999835,381.0339844999835,381.0339844999835,381.0339844999835,381.0339844999835,381.0339844999835,0.0009383000433444977,381.0339844999835,382.23497589997714,[0.2578125],[-0.046875],[1],[0],[0],[1.2135521000018343],[1],['clear_anger'],382.23640850000083,382.24906609999016,0.000609799986705184,382.24906609999016,382.24906609999016,382.24906609999016,382.24906609999016,382.24906609999016,382.24906609999016,382.24906609999016,383.68440909998026,[-0.23567708333333334],[-0.3268229166666667],[1],[0],[0],[1.4465777999721467],[1],['clear_anger_main'],,,,01R,001,2024-12-03_19h46.38.250,SOLO_PROJECT_EXPERIMENT_NUTAN_KAIN_AU2220019,2024.1.5,None,2024-12-03 19h47.10.608187 +0530,
,,,,41,0,41,0,383.6989383000182,,,,,,,,,,,,,,,,,,,,,,,,,,,,,,,,,,,,,,,,,,,,,,,,,,,,,,,,,,,,,,,383.6872091999976,383.6989383000182,383.6989383000182,383.6989383000182,383.6989383000182,383.6989383000182,383.6989383000182,383.6989383000182,0.0016258000396192074,383.6989383000182,385.08183809998445,[-0.3229166666666667],[-0.3229166666666667],[1],[0],[0],[1.3926758999587037],[1],['clear_anger'],385.0839403999853,385.09735240001464,0.00135709997266531,385.09735240001464,385.09735240001464,385.09735240001464,385.09735240001464,385.09735240001464,385.09735240001464,385.09735240001464,386.84791229997063,[-0.3138020833333333],[-0.4596354166666667],[1],[0],[0],[1.7618374000303447],[1],['clear_anger_main'],,,,01R,001,2024-12-03_19h46.38.250,SOLO_PROJECT_EXPERIMENT_NUTAN_KAIN_AU2220019,2024.1.5,None,2024-12-03 19h47.10.608187 +0530,
,,,,42,0,42,0,386.8613879000186,,,,,,,,,,,,,,,,,,,,,,,,,,,,,,,,,,,,,,,,,,,,,,,,,,,,,,,,,,,,,,,386.84985140000936,386.8613879000186,386.8613879000186,386.8613879000186,386.8613879000186,386.8613879000186,386.8613879000186,386.8613879000186,0.0011261999607086182,386.8613879000186,388.32857840001816,[-0.4817708333333333],[-0.06640625],[1],[0],[0],[1.4772974000079557],[1],['clear_anger'],388.33053129998734,388.34320449997904,0.000833099998999387,388.34320449997904,388.34320449997904,388.34320449997904,388.34320449997904,388.34320449997904,388.34320449997904,388.34320449997904,390.34351370000513,[-0.296875],[0.3684895833333333],[1],[0],[0],[2.011459900008049],[1],['clear_anger_main'],,,,01R,001,2024-12-03_19h46.38.250,SOLO_PROJECT_EXPERIMENT_NUTAN_KAIN_AU2220019,2024.1.5,None,2024-12-03 19h47.10.608187 +0530,
,,,,43,0,43,0,390.3579121999792,,,,,,,,,,,,,,,,,,,,,,,,,,,,,,,,,,,,,,,,,,,,,,,,,,,,,,,,,,,,,,,390.34536169999046,390.3579121999792,390.3579121999792,390.3579121999792,390.3579121999792,390.3579121999792,390.3579121999792,390.3579121999792,0.001034800021443516,390.3579121999792,391.57725560001563,[0.12369791666666667],[0.22786458333333334],[1],[0],[0],[1.2302268000203185],[1],['clear_anger'],391.57932819996495,391.59020199999213,0.0006981999613344669,391.59020199999213,391.59020199999213,391.59020199999213,391.59020199999213,391.59020199999213,391.59020199999213,391.59020199999213,392.9749710999895,[-0.3372395833333333],[0.048177083333333336],[1],[0],[0],[1.394237099972088],[1],['clear_anger_main'],,,,01R,001,2024-12-03_19h46.38.250,SOLO_PROJECT_EXPERIMENT_NUTAN_KAIN_AU2220019,2024.1.5,None,2024-12-03 19h47.10.608187 +0530,
,,,,44,0,44,0,392.9885831999709,,,,,,,,,,,,,,,,,,,,,,,,,,,,,,,,,,,,,,,,,,,,,,,,,,,,,,,,,,,,,,,392.9770028999774,392.9885831999709,392.9885831999709,392.9885831999709,392.9885831999709,392.9885831999709,392.9885831999709,392.9885831999709,0.0011309999972581863,392.9885831999709,394.189674299967,[-0.1171875],[0.2747395833333333],[1],[0],[0],[1.2110785000259057],[1],['clear_anger'],394.1914549000212,394.20448109996505,0.0008210999658331275,394.20448109996505,394.20448109996505,394.20448109996505,394.20448109996505,394.20448109996505,394.20448109996505,394.20448109996505,395.5741748000146,[0.18619791666666666],[-0.12109375],[1],[0],[0],[1.3808171999990009],[1],['clear_anger_main'],,,,01R,001,2024-12-03_19h46.38.250,SOLO_PROJECT_EXPERIMENT_NUTAN_KAIN_AU2220019,2024.1.5,None,2024-12-03 19h47.10.608187 +0530,
,,,,45,0,45,0,395.58804679999594,,,,,,,,,,,,,,,,,,,,,,,,,,,,,,,,,,,,,,,,,,,,,,,,,,,,,,,,,,,,,,,395.5774371000007,395.58804679999594,395.58804679999594,395.58804679999594,395.58804679999594,395.58804679999594,395.58804679999594,395.58804679999594,0.0015329999732784927,395.58804679999594,397.1056022999692,[0.34375],[-0.24739583333333334],[1],[0],[0],[1.5263156000291929],[1],['clear_anger'],397.1079366999911,397.1206854999764,0.0012596999877132475,397.1206854999764,397.1206854999764,397.1206854999764,397.1206854999764,397.1206854999764,397.1206854999764,397.1206854999764,398.2201157999807,[-0.41796875],[-0.028645833333333332],[1],[0],[0],[1.1102460999973118],[1],['clear_anger_main'],,,,01R,001,2024-12-03_19h46.38.250,SOLO_PROJECT_EXPERIMENT_NUTAN_KAIN_AU2220019,2024.1.5,None,2024-12-03 19h47.10.608187 +0530,
,,,,46,0,46,0,398.2333335999865,,,,,,,,,,,,,,,,,,,,,,,,,,,,,,,,,,,,,,,,,,,,,,,,,,,,,,,,,,,,,,,398.2221214000019,398.2333335999865,398.2333335999865,398.2333335999865,398.2333335999865,398.2333335999865,398.2333335999865,398.2333335999865,0.001087699958588928,398.2333335999865,399.4013471999788,[-0.0625],[0.10026041666666667],[1],[0],[0],[1.1774877000134438],[1],['clear_anger'],399.4030115000205,399.41576090001035,0.0007850999827496707,399.41576090001035,399.41576090001035,399.41576090001035,399.41576090001035,399.41576090001035,399.41576090001035,399.41576090001035,402.59954889997607,[-0.12890625],[0.3984375],[1],[0],[0],[3.194990099989809],[1],['clear_anger_main'],,,,01R,001,2024-12-03_19h46.38.250,SOLO_PROJECT_EXPERIMENT_NUTAN_KAIN_AU2220019,2024.1.5,None,2024-12-03 19h47.10.608187 +0530,
,,,,47,0,47,0,402.61288400000194,,,,,,,,,,,,,,,,,,,,,,,,,,,,,,,,,,,,,,,,,,,,,,,,,,,,,,,,,,,,,,,402.6020233000163,402.61288400000194,402.61288400000194,402.61288400000194,402.61288400000194,402.61288400000194,402.61288400000194,402.61288400000194,0.0014346999814733863,402.61288400000194,404.96310419996735,[-0.3841145833333333],[-0.4127604166666667],[1],[0],[0],[2.3593596999999136],[1],['clear_anger'],404.96461749996524,404.97709329996724,0.0006824999582022429,404.97709329996724,404.97709329996724,404.97709329996724,404.97709329996724,404.97709329996724,404.97709329996724,404.97709329996724,406.41175269999076,[-0.048177083333333336],[0.4140625],[1],[0],[0],[1.4457326999981888],[1],['clear_anger_main'],,,,01R,001,2024-12-03_19h46.38.250,SOLO_PROJECT_EXPERIMENT_NUTAN_KAIN_AU2220019,2024.1.5,None,2024-12-03 19h47.10.608187 +0530,
,,,,48,0,48,0,406.425550999993,,,,,,,,,,,,,,,,,,,,,,,,,,,,,,,,,,,,,,,,,,,,,,,,,,,,,,,,,,,,,,,406.4139728000155,406.425550999993,406.425550999993,406.425550999993,406.425550999993,406.425550999993,406.425550999993,406.425550999993,0.0010600000387057662,406.425550999993,407.52651519997744,[-0.390625],[0.2565104166666667],[1],[0],[0],[1.1112242000526749],[1],['clear_anger'],407.52775519998977,407.5408074000152,0.0004805999924428761,407.5408074000152,407.5408074000152,407.5408074000152,407.5408074000152,407.5408074000152,407.5408074000152,407.5408074000152,410.3239766000188,[0.3125],[-0.2721354166666667],[1],[0],[0],[2.794949800008908],[1],['clear_anger_main'],,,,01R,001,2024-12-03_19h46.38.250,SOLO_PROJECT_EXPERIMENT_NUTAN_KAIN_AU2220019,2024.1.5,None,2024-12-03 19h47.10.608187 +0530,
,,,,49,0,49,0,410.33818259998225,,,,,,,,,,,,,,,,,,,,,,,,,,,,,,,,,,,,,,,,,,,,,,,,,,,,,,,,,,,,,,,410.326469099964,410.33818259998225,410.33818259998225,410.33818259998225,410.33818259998225,410.33818259998225,410.33818259998225,410.33818259998225,0.0011341000208631158,410.33818259998225,412.4231694000191,[0.3489583333333333],[0.3697916666666667],[1],[0],[0],[2.0950061000185087],[],[],412.4250938000041,412.4373509999714,0.0009208000265061855,412.4373509999714,412.4373509999714,412.4373509999714,412.4373509999714,412.4373509999714,412.4373509999714,412.4373509999714,413.55406230001245,[0.006510416666666667],[0.4075520833333333],[1],[0],[0],[1.1272609999869019],[1],['clear_anger_main'],,,,01R,001,2024-12-03_19h46.38.250,SOLO_PROJECT_EXPERIMENT_NUTAN_KAIN_AU2220019,2024.1.5,None,2024-12-03 19h47.10.608187 +0530,
,,,,,,,,,,,,,,,,,,,,,,,,,,,,,,,,,,,,,,,,,,,,,,,,,,,,,,,,,,,,,,,,,,,,,,,,,,,,,,,,,,,,,,,,,,,,,,,,,,,,,,,,,,,,,413.5561110000126,413.56867770000827,416.5674389000051,01R,001,2024-12-03_19h46.38.250,SOLO_PROJECT_EXPERIMENT_NUTAN_KAIN_AU2220019,2024.1.5,None,2024-12-03 19h47.10.608187 +0530,
