loop_1.thisRepN,loop_1.thisTrialN,loop_1.thisN,loop_1.thisIndex,loop_2.thisRepN,loop_2.thisTrialN,loop_2.thisN,loop_2.thisIndex,thisRow.t,notes,guidelines.started,text.started,key_resp.started,guidelines.stopped,key_resp.keys,key_resp.rt,key_resp.duration,find_1.started,text_2.started,find_image_1.started,key_resp_2.started,find_1.stopped,key_resp_2.keys,key_resp_2.rt,key_resp_2.duration,baseline_sa.started,subtle_anger.started,n_1.started,n_2.started,n_3.started,n_4.started,n_5.started,n_6.started,mouse_resp.started,fix_1.started,baseline_sa.stopped,mouse_resp.x,mouse_resp.y,mouse_resp.leftButton,mouse_resp.midButton,mouse_resp.rightButton,mouse_resp.time,mouse_resp.corr,mouse_resp.clicked_name,main_sa.started,subtle_anger_main.started,mouse_resp_4.started,d_1.started,d_2.started,d_3.started,s_1.started,s_2.started,s_3.started,fix_2.started,main_sa.stopped,mouse_resp_4.x,mouse_resp_4.y,mouse_resp_4.leftButton,mouse_resp_4.midButton,mouse_resp_4.rightButton,mouse_resp_4.time,mouse_resp_4.corr,mouse_resp_4.clicked_name,find_3.started,text_4.started,key_resp_4.started,find_image__.started,find_3.stopped,key_resp_4.keys,key_resp_4.rt,key_resp_4.duration,baseline_ca.started,clear_anger.started,n_7.started,n_8.started,n_9.started,n_10.started,n_11.started,n_12.started,mouse_resp_3.started,fix_3.started,baseline_ca.stopped,mouse_resp_3.x,mouse_resp_3.y,mouse_resp_3.leftButton,mouse_resp_3.midButton,mouse_resp_3.rightButton,mouse_resp_3.time,mouse_resp_3.corr,mouse_resp_3.clicked_name,main_ca.started,clear_anger_main.started,mouse_resp_5.started,d_4.started,d_5.started,d_6.started,s_4.started,s_5.started,s_6.started,fix_4.started,main_ca.stopped,mouse_resp_5.x,mouse_resp_5.y,mouse_resp_5.leftButton,mouse_resp_5.midButton,mouse_resp_5.rightButton,mouse_resp_5.time,mouse_resp_5.corr,mouse_resp_5.clicked_name,thank_you.started,thanks.started,thank_you.stopped,participant,session,date,expName,psychopyVersion,frameRate,expStart,
,,,,,,,,,,0.005222100007813424,0.01881909999065101,0.01881909999065101,20.056268499989528,space,20.016211299982388,None,,,,,,,,,,,,,,,,,,,,,,,,,,,,,,,,,,,,,,,,,,,,,,,,,,,,,,,,,,,,,,,,,,,,,,,,,,,,,,,,,,,,,,,,,,,,,,,,02P,001,2024-12-03_19h54.51.094,SOLO_PROJECT_EXPERIMENT_NUTAN_KAIN_AU2220019,2024.1.5,None,2024-12-03 19h55.10.261727 +0530,
,,,,,,,,,,,,,,,,,20.056329099985305,20.118103899993002,20.118103899993002,20.118103899993002,39.34879020001972,space,19.223225000023376,None,,,,,,,,,,,,,,,,,,,,,,,,,,,,,,,,,,,,,,,,,,,,,,,,,,,,,,,,,,,,,,,,,,,,,,,,,,,,,,,,,,,,,,,,02P,001,2024-12-03_19h54.51.094,SOLO_PROJECT_EXPERIMENT_NUTAN_KAIN_AU2220019,2024.1.5,None,2024-12-03 19h55.10.261727 +0530,
0,0,0,0,,,,,39.46632140001748,,,,,,,,,,,,,,,,,39.35149500000989,39.46632140001748,39.46632140001748,39.46632140001748,39.46632140001748,39.46632140001748,39.46632140001748,39.46632140001748,0.003842799982521683,39.46632140001748,41.38318200001959,[0.16536458333333334],[-0.08072916666666667],[1],[0],[0],[2.0293470000033267],[1],['subtle_anger'],41.38592939998489,41.64770079997834,0.0004931000294163823,41.64770079997834,41.64770079997834,41.64770079997834,41.64770079997834,41.64770079997834,41.64770079997834,41.64770079997834,43.47859359998256,[0.2890625],[-0.4752604166666667],[1],[0],[0],[2.0912578999996185],[1],['subtle_anger_main'],,,,,,,,,,,,,,,,,,,,,,,,,,,,,,,,,,,,,,,,,,,,,,,,,,02P,001,2024-12-03_19h54.51.094,SOLO_PROJECT_EXPERIMENT_NUTAN_KAIN_AU2220019,2024.1.5,None,2024-12-03 19h55.10.261727 +0530,
1,0,1,0,,,,,43.49345030001132,,,,,,,,,,,,,,,,,43.48133699997561,43.49345030001132,43.49345030001132,43.49345030001132,43.49345030001132,43.49345030001132,43.49345030001132,43.49345030001132,0.0011422000243328512,43.49345030001132,44.742374999972526,[-0.16145833333333334],[-0.17317708333333334],[1],[0],[0],[1.2594399999943562],[1],['subtle_anger'],44.744518099993,44.75696580001386,0.0009562000050209463,44.75696580001386,44.75696580001386,44.75696580001386,44.75696580001386,44.75696580001386,44.75696580001386,44.75696580001386,46.00859310000669,[0.4986979166666667],[0.040364583333333336],[1],[0],[0],[1.262374899990391],[1],['subtle_anger_main'],,,,,,,,,,,,,,,,,,,,,,,,,,,,,,,,,,,,,,,,,,,,,,,,,,02P,001,2024-12-03_19h54.51.094,SOLO_PROJECT_EXPERIMENT_NUTAN_KAIN_AU2220019,2024.1.5,None,2024-12-03 19h55.10.261727 +0530,
2,0,2,0,,,,,46.022375000000466,,,,,,,,,,,,,,,,,46.01061860000482,46.022375000000466,46.022375000000466,46.022375000000466,46.022375000000466,46.022375000000466,46.022375000000466,46.022375000000466,0.001113200036343187,46.022375000000466,47.52436989999842,[-0.005208333333333333],[-0.17578125],[1],[0],[0],[1.5121630000066943],[1],['subtle_anger'],47.5263831000193,47.53817010001512,0.0008823000243864954,47.53817010001512,47.53817010001512,47.53817010001512,47.53817010001512,47.53817010001512,47.53817010001512,47.53817010001512,49.05478289996972,[0.3138020833333333],[0.2890625],[1],[0],[0],[1.5267204000265338],[1],['subtle_anger_main'],,,,,,,,,,,,,,,,,,,,,,,,,,,,,,,,,,,,,,,,,,,,,,,,,,02P,001,2024-12-03_19h54.51.094,SOLO_PROJECT_EXPERIMENT_NUTAN_KAIN_AU2220019,2024.1.5,None,2024-12-03 19h55.10.261727 +0530,
3,0,3,0,,,,,49.06928749999497,,,,,,,,,,,,,,,,,49.05723239999497,49.06928749999497,49.06928749999497,49.06928749999497,49.06928749999497,49.06928749999497,49.06928749999497,49.06928749999497,0.0011442999821156263,49.06928749999497,50.23640629998408,[-0.2877604166666667],[-0.17838541666666666],[1],[0],[0],[1.1777218999923207],[1],['subtle_anger'],50.23778620001394,50.25148729997454,0.0006599000189453363,50.25148729997454,50.25148729997454,50.25148729997454,50.25148729997454,50.25148729997454,50.25148729997454,50.25148729997454,52.368445899977814,[-0.2604166666666667],[0.4127604166666667],[1],[0],[0],[2.1294081999803893],[1],['subtle_anger_main'],,,,,,,,,,,,,,,,,,,,,,,,,,,,,,,,,,,,,,,,,,,,,,,,,,02P,001,2024-12-03_19h54.51.094,SOLO_PROJECT_EXPERIMENT_NUTAN_KAIN_AU2220019,2024.1.5,None,2024-12-03 19h55.10.261727 +0530,
4,0,4,0,,,,,52.382895199989434,,,,,,,,,,,,,,,,,52.37014319997979,52.382895199989434,52.382895199989434,52.382895199989434,52.382895199989434,52.382895199989434,52.382895199989434,52.382895199989434,0.0008543999865651131,52.382895199989434,54.43335369997658,[0.22265625],[-0.3619791666666667],[1],[0],[0],[2.061981200007722],[1],['subtle_anger'],54.4348271000199,54.4472681999905,0.0006824999582022429,54.4472681999905,54.4472681999905,54.4472681999905,54.4472681999905,54.4472681999905,54.4472681999905,54.4472681999905,55.565655099984724,[-0.17578125],[-0.19270833333333334],[1],[0],[0],[1.1293544000363909],[1],['subtle_anger_main'],,,,,,,,,,,,,,,,,,,,,,,,,,,,,,,,,,,,,,,,,,,,,,,,,,02P,001,2024-12-03_19h54.51.094,SOLO_PROJECT_EXPERIMENT_NUTAN_KAIN_AU2220019,2024.1.5,None,2024-12-03 19h55.10.261727 +0530,
5,0,5,0,,,,,55.57989679998718,,,,,,,,,,,,,,,,,55.56790299998829,55.57989679998718,55.57989679998718,55.57989679998718,55.57989679998718,55.57989679998718,55.57989679998718,55.57989679998718,0.0012456999975256622,55.57989679998718,56.61440409999341,[-0.040364583333333336],[0.14713541666666666],[1],[0],[0],[1.0448246999876574],[1],['subtle_anger'],56.616219700023066,56.62856979999924,0.0008486000006087124,56.62856979999924,56.62856979999924,56.62856979999924,56.62856979999924,56.62856979999924,56.62856979999924,56.62856979999924,57.84747039998183,[0.39453125],[0.3033854166666667],[1],[0],[0],[1.2298390000360087],[1],['subtle_anger_main'],,,,,,,,,,,,,,,,,,,,,,,,,,,,,,,,,,,,,,,,,,,,,,,,,,02P,001,2024-12-03_19h54.51.094,SOLO_PROJECT_EXPERIMENT_NUTAN_KAIN_AU2220019,2024.1.5,None,2024-12-03 19h55.10.261727 +0530,
6,0,6,0,,,,,57.86056040000403,,,,,,,,,,,,,,,,,57.84886630001711,57.86056040000403,57.86056040000403,57.86056040000403,57.86056040000403,57.86056040000403,57.86056040000403,57.86056040000403,0.0008290999685414135,57.86056040000403,59.744223700021394,[0.46875],[0.3671875],[1],[0],[0],[1.8942158000427298],[1],['subtle_anger'],59.74536120000994,59.75914109998848,0.000552999961655587,59.75914109998848,59.75914109998848,59.75914109998848,59.75914109998848,59.75914109998848,59.75914109998848,59.75914109998848,62.108357699995395,[0.2825520833333333],[-0.22395833333333334],[1],[0],[0],[2.361824700026773],[1],['subtle_anger_main'],,,,,,,,,,,,,,,,,,,,,,,,,,,,,,,,,,,,,,,,,,,,,,,,,,02P,001,2024-12-03_19h54.51.094,SOLO_PROJECT_EXPERIMENT_NUTAN_KAIN_AU2220019,2024.1.5,None,2024-12-03 19h55.10.261727 +0530,
7,0,7,0,,,,,62.1232060000184,,,,,,,,,,,,,,,,,62.11048109998228,62.1232060000184,62.1232060000184,62.1232060000184,62.1232060000184,62.1232060000184,62.1232060000184,62.1232060000184,0.0011743999784812331,62.1232060000184,63.10825529997237,[-0.21614583333333334],[0.2747395833333333],[1],[0],[0],[0.9963797000236809],[1],['subtle_anger'],63.10945679998258,63.122435199969914,0.0005714999861083925,63.122435199969914,63.122435199969914,63.122435199969914,63.122435199969914,63.122435199969914,63.122435199969914,63.122435199969914,65.176529999997,[-0.22526041666666666],[-0.265625],[1],[0],[0],[2.0652850000187755],[1],['subtle_anger_main'],,,,,,,,,,,,,,,,,,,,,,,,,,,,,,,,,,,,,,,,,,,,,,,,,,02P,001,2024-12-03_19h54.51.094,SOLO_PROJECT_EXPERIMENT_NUTAN_KAIN_AU2220019,2024.1.5,None,2024-12-03 19h55.10.261727 +0530,
8,0,8,0,,,,,65.20034759998089,,,,,,,,,,,,,,,,,65.18101920001209,65.20034759998089,65.20034759998089,65.20034759998089,65.20034759998089,65.20034759998089,65.20034759998089,65.20034759998089,0.003113000013399869,65.20034759998089,67.05378319998272,[-0.21875],[0.07291666666666667],[1],[0],[0],[1.8698048000223935],[1],['subtle_anger'],67.05630960001145,67.0685247000074,0.001087699958588928,67.0685247000074,67.0685247000074,67.0685247000074,67.0685247000074,67.0685247000074,67.0685247000074,67.0685247000074,70.26851640001405,[-0.16015625],[-0.2981770833333333],[1],[0],[0],[3.2102274000062607],[1],['subtle_anger_main'],,,,,,,,,,,,,,,,,,,,,,,,,,,,,,,,,,,,,,,,,,,,,,,,,,02P,001,2024-12-03_19h54.51.094,SOLO_PROJECT_EXPERIMENT_NUTAN_KAIN_AU2220019,2024.1.5,None,2024-12-03 19h55.10.261727 +0530,
9,0,9,0,,,,,70.28862439998193,,,,,,,,,,,,,,,,,70.27211439999519,70.28862439998193,70.28862439998193,70.28862439998193,70.28862439998193,70.28862439998193,70.28862439998193,70.28862439998193,0.0020308999810367823,70.28862439998193,72.01750600000378,[0.5143229166666666],[-0.3411458333333333],[1],[0],[0],[1.7427119999774732],[1],['subtle_anger'],72.02005230000941,72.03384029999143,0.001382600050419569,72.03384029999143,72.03384029999143,72.03384029999143,72.03384029999143,72.03384029999143,72.03384029999143,72.03384029999143,73.43203949998133,[-0.3307291666666667],[0.46875],[1],[0],[0],[1.409860200015828],[1],['subtle_anger_main'],,,,,,,,,,,,,,,,,,,,,,,,,,,,,,,,,,,,,,,,,,,,,,,,,,02P,001,2024-12-03_19h54.51.094,SOLO_PROJECT_EXPERIMENT_NUTAN_KAIN_AU2220019,2024.1.5,None,2024-12-03 19h55.10.261727 +0530,
10,0,10,0,,,,,73.44558110000798,,,,,,,,,,,,,,,,,73.43498419999378,73.44558110000798,73.44558110000798,73.44558110000798,73.44558110000798,73.44558110000798,73.44558110000798,73.44558110000798,0.0014034999767318368,73.44558110000798,74.83052000001771,[0.20833333333333334],[0.23567708333333334],[1],[0],[0],[1.393962999980431],[1],['subtle_anger'],74.8319129999727,74.84421449998626,0.000555099977646023,74.84421449998626,74.84421449998626,74.84421449998626,74.84421449998626,74.84421449998626,74.84421449998626,74.84421449998626,77.50999709998723,[0.08984375],[0.3997395833333333],[1],[0],[0],[2.676915700023528],[1],['subtle_anger_main'],,,,,,,,,,,,,,,,,,,,,,,,,,,,,,,,,,,,,,,,,,,,,,,,,,02P,001,2024-12-03_19h54.51.094,SOLO_PROJECT_EXPERIMENT_NUTAN_KAIN_AU2220019,2024.1.5,None,2024-12-03 19h55.10.261727 +0530,
11,0,11,0,,,,,77.52496110001812,,,,,,,,,,,,,,,,,77.51176510000369,77.52496110001812,77.52496110001812,77.52496110001812,77.52496110001812,77.52496110001812,77.52496110001812,77.52496110001812,0.0010082999942824244,77.52496110001812,79.27594849996967,[-0.4518229166666667],[0.12890625],[1],[0],[0],[1.7625606999499723],[1],['subtle_anger'],79.277917600004,79.29026390000945,0.0008471999899484217,79.29026390000945,79.29026390000945,79.29026390000945,79.29026390000945,79.29026390000945,79.29026390000945,79.29026390000945,81.32404450001195,[-0.18489583333333334],[-0.3033854166666667],[1],[0],[0],[2.044702400045935],[1],['subtle_anger_main'],,,,,,,,,,,,,,,,,,,,,,,,,,,,,,,,,,,,,,,,,,,,,,,,,,02P,001,2024-12-03_19h54.51.094,SOLO_PROJECT_EXPERIMENT_NUTAN_KAIN_AU2220019,2024.1.5,None,2024-12-03 19h55.10.261727 +0530,
12,0,12,0,,,,,81.33768230001442,,,,,,,,,,,,,,,,,81.32549590000417,81.33768230001442,81.33768230001442,81.33768230001442,81.33768230001442,81.33768230001442,81.33768230001442,81.33768230001442,0.0007542999810539186,81.33768230001442,83.43865179998102,[-0.3919270833333333],[0.3333333333333333],[1],[0],[0],[2.11184799997136],[1],['subtle_anger'],83.44034799997462,83.45254809997277,0.0006047999486327171,83.45254809997277,83.45254809997277,83.45254809997277,83.45254809997277,83.45254809997277,83.45254809997277,83.45254809997277,84.53725880000275,[-0.19010416666666666],[0.2734375],[1],[0],[0],[1.0956751000485383],[1],['subtle_anger_main'],,,,,,,,,,,,,,,,,,,,,,,,,,,,,,,,,,,,,,,,,,,,,,,,,,02P,001,2024-12-03_19h54.51.094,SOLO_PROJECT_EXPERIMENT_NUTAN_KAIN_AU2220019,2024.1.5,None,2024-12-03 19h55.10.261727 +0530,
13,0,13,0,,,,,84.55088160000741,,,,,,,,,,,,,,,,,84.53903769998578,84.55088160000741,84.55088160000741,84.55088160000741,84.55088160000741,84.55088160000741,84.55088160000741,84.55088160000741,0.0009905999759212136,84.55088160000741,86.53484749997733,[-0.13541666666666666],[-0.41015625],[1],[0],[0],[1.9945148999686353],[1],['subtle_anger'],86.53604380000615,86.54953820002265,0.0004940999788232148,86.54953820002265,86.54953820002265,86.54953820002265,86.54953820002265,86.54953820002265,86.54953820002265,86.54953820002265,87.5176321999752,[0.171875],[0.07161458333333333],[1],[0],[0],[0.9805906999972649],[1],['subtle_anger_main'],,,,,,,,,,,,,,,,,,,,,,,,,,,,,,,,,,,,,,,,,,,,,,,,,,02P,001,2024-12-03_19h54.51.094,SOLO_PROJECT_EXPERIMENT_NUTAN_KAIN_AU2220019,2024.1.5,None,2024-12-03 19h55.10.261727 +0530,
14,0,14,0,,,,,87.53182809997816,,,,,,,,,,,,,,,,,87.5191477999906,87.53182809997816,87.53182809997816,87.53182809997816,87.53182809997816,87.53182809997816,87.53182809997816,87.53182809997816,0.0007654999499209225,87.53182809997816,88.9491858999827,[-0.3020833333333333],[-0.375],[1],[0],[0],[1.4289585999795236],[1],['subtle_anger'],88.95059299998684,88.9635195999872,0.0006711999885737896,88.9635195999872,88.9635195999872,88.9635195999872,88.9635195999872,88.9635195999872,88.9635195999872,88.9635195999872,90.98104949999833,[0.09505208333333333],[-0.4322916666666667],[1],[0],[0],[2.028995100001339],[1],['subtle_anger_main'],,,,,,,,,,,,,,,,,,,,,,,,,,,,,,,,,,,,,,,,,,,,,,,,,,02P,001,2024-12-03_19h54.51.094,SOLO_PROJECT_EXPERIMENT_NUTAN_KAIN_AU2220019,2024.1.5,None,2024-12-03 19h55.10.261727 +0530,
15,0,15,0,,,,,90.99541179998778,,,,,,,,,,,,,,,,,90.98366809997242,90.99541179998778,90.99541179998778,90.99541179998778,90.99541179998778,90.99541179998778,90.99541179998778,90.99541179998778,0.0013710000202991068,90.99541179998778,92.89595500001451,[0.2604166666666667],[-0.3932291666666667],[1],[0],[0],[1.9106090000132099],[],[],92.89761609997367,92.90951839997433,0.0006634999881498516,92.90951839997433,92.90951839997433,92.90951839997433,92.90951839997433,92.90951839997433,92.90951839997433,92.90951839997433,94.44539850001456,[0.13932291666666666],[-0.3046875],[1],[0],[0],[1.5463996999897063],[1],['subtle_anger_main'],,,,,,,,,,,,,,,,,,,,,,,,,,,,,,,,,,,,,,,,,,,,,,,,,,02P,001,2024-12-03_19h54.51.094,SOLO_PROJECT_EXPERIMENT_NUTAN_KAIN_AU2220019,2024.1.5,None,2024-12-03 19h55.10.261727 +0530,
16,0,16,0,,,,,94.45853539998643,,,,,,,,,,,,,,,,,94.44750459998613,94.45853539998643,94.45853539998643,94.45853539998643,94.45853539998643,94.45853539998643,94.45853539998643,94.45853539998643,0.001182700041681528,94.45853539998643,95.72542809997685,[0.4153645833333333],[-0.036458333333333336],[1],[0],[0],[1.2764930000412278],[1],['subtle_anger'],95.72658509999746,95.74048879998736,0.0005306999664753675,95.74048879998736,95.74048879998736,95.74048879998736,95.74048879998736,95.74048879998736,95.74048879998736,95.74048879998736,96.8081076000235,[-0.04296875],[-0.11848958333333333],[1],[0],[0],[1.0802358000073582],[1],['subtle_anger_main'],,,,,,,,,,,,,,,,,,,,,,,,,,,,,,,,,,,,,,,,,,,,,,,,,,02P,001,2024-12-03_19h54.51.094,SOLO_PROJECT_EXPERIMENT_NUTAN_KAIN_AU2220019,2024.1.5,None,2024-12-03 19h55.10.261727 +0530,
17,0,17,0,,,,,96.82301240001107,,,,,,,,,,,,,,,,,96.81036629999289,96.82301240001107,96.82301240001107,96.82301240001107,96.82301240001107,96.82301240001107,96.82301240001107,96.82301240001107,0.001212199975270778,96.82301240001107,97.82374060002621,[0.08203125],[0.18489583333333334],[1],[0],[0],[1.011827100010123],[1],['subtle_anger'],97.82548439997481,97.83829520002473,0.0005447000148706138,97.83829520002473,97.83829520002473,97.83829520002473,97.83829520002473,97.83829520002473,97.83829520002473,97.83829520002473,99.03957050002646,[0.044270833333333336],[0.3020833333333333],[1],[0],[0],[1.2127105999970809],[1],['subtle_anger_main'],,,,,,,,,,,,,,,,,,,,,,,,,,,,,,,,,,,,,,,,,,,,,,,,,,02P,001,2024-12-03_19h54.51.094,SOLO_PROJECT_EXPERIMENT_NUTAN_KAIN_AU2220019,2024.1.5,None,2024-12-03 19h55.10.261727 +0530,
18,0,18,0,,,,,99.0541082000127,,,,,,,,,,,,,,,,,99.04251840000506,99.0541082000127,99.0541082000127,99.0541082000127,99.0541082000127,99.0541082000127,99.0541082000127,99.0541082000127,0.0015347999869845808,99.0541082000127,100.15511970000807,[-0.2734375],[0.3502604166666667],[1],[0],[0],[1.1108162999735214],[1],['subtle_anger'],100.15707929997006,100.16954249999253,0.0008367999689653516,100.16954249999253,100.16954249999253,100.16954249999253,100.16954249999253,100.16954249999253,100.16954249999253,100.16954249999253,101.187331299996,[0.1171875],[0.13671875],[1],[0],[0],[1.0286029999842867],[1],['subtle_anger_main'],,,,,,,,,,,,,,,,,,,,,,,,,,,,,,,,,,,,,,,,,,,,,,,,,,02P,001,2024-12-03_19h54.51.094,SOLO_PROJECT_EXPERIMENT_NUTAN_KAIN_AU2220019,2024.1.5,None,2024-12-03 19h55.10.261727 +0530,
19,0,19,0,,,,,101.20129100000486,,,,,,,,,,,,,,,,,101.18941019999329,101.20129100000486,101.20129100000486,101.20129100000486,101.20129100000486,101.20129100000486,101.20129100000486,101.20129100000486,0.0011857999488711357,101.20129100000486,103.23559429997113,[-0.328125],[0.3658854166666667],[1],[0],[0],[2.0446558999828994],[1],['subtle_anger'],103.23725439998088,103.25012639997294,0.0007931999862194061,103.25012639997294,103.25012639997294,103.25012639997294,103.25012639997294,103.25012639997294,103.25012639997294,103.25012639997294,105.50105620000977,[-0.4153645833333333],[-0.3229166666666667],[1],[0],[0],[2.2622812000336125],[1],['subtle_anger_main'],,,,,,,,,,,,,,,,,,,,,,,,,,,,,,,,,,,,,,,,,,,,,,,,,,02P,001,2024-12-03_19h54.51.094,SOLO_PROJECT_EXPERIMENT_NUTAN_KAIN_AU2220019,2024.1.5,None,2024-12-03 19h55.10.261727 +0530,
20,0,20,0,,,,,105.51430139999138,,,,,,,,,,,,,,,,,105.50343119999161,105.51430139999138,105.51430139999138,105.51430139999138,105.51430139999138,105.51430139999138,105.51430139999138,105.51430139999138,0.0012039999710395932,105.51430139999138,106.78159909998067,[0.21223958333333334],[0.171875],[1],[0],[0],[1.2765021999948658],[1],['subtle_anger'],106.78336940001464,106.79631479998352,0.0007906000246293843,106.79631479998352,106.79631479998352,106.79631479998352,106.79631479998352,106.79631479998352,106.79631479998352,106.79631479998352,109.11304490000475,[0.42578125],[-0.4557291666666667],[1],[0],[0],[2.3281543000484817],[1],['subtle_anger_main'],,,,,,,,,,,,,,,,,,,,,,,,,,,,,,,,,,,,,,,,,,,,,,,,,,02P,001,2024-12-03_19h54.51.094,SOLO_PROJECT_EXPERIMENT_NUTAN_KAIN_AU2220019,2024.1.5,None,2024-12-03 19h55.10.261727 +0530,
21,0,21,0,,,,,109.12756220001029,,,,,,,,,,,,,,,,,109.11449980002362,109.12756220001029,109.12756220001029,109.12756220001029,109.12756220001029,109.12756220001029,109.12756220001029,109.12756220001029,0.0008336000028066337,109.12756220001029,110.99519009998767,[0.0625],[-0.41015625],[1],[0],[0],[1.8794059000210837],[1],['subtle_anger'],110.99676700000418,111.0090116999927,0.0006900000153109431,111.0090116999927,111.0090116999927,111.0090116999927,111.0090116999927,111.0090116999927,111.0090116999927,111.0090116999927,112.19351060001645,[-0.4140625],[0.061197916666666664],[1],[0],[0],[1.195257599989418],[1],['subtle_anger_main'],,,,,,,,,,,,,,,,,,,,,,,,,,,,,,,,,,,,,,,,,,,,,,,,,,02P,001,2024-12-03_19h54.51.094,SOLO_PROJECT_EXPERIMENT_NUTAN_KAIN_AU2220019,2024.1.5,None,2024-12-03 19h55.10.261727 +0530,
22,0,22,0,,,,,112.20783410000149,,,,,,,,,,,,,,,,,112.19674500002293,112.20783410000149,112.20783410000149,112.20783410000149,112.20783410000149,112.20783410000149,112.20783410000149,112.20783410000149,0.0017071000183932483,112.20783410000149,114.27441070001805,[-0.4205729166666667],[-0.07682291666666667],[1],[0],[0],[2.0760256000212394],[1],['subtle_anger'],114.27623369998764,114.28903569997055,0.0008279999601654708,114.28903569997055,114.28903569997055,114.28903569997055,114.28903569997055,114.28903569997055,114.28903569997055,114.28903569997055,115.64049700001488,[-0.0703125],[0.39453125],[1],[0],[0],[1.3625614000484347],[1],['subtle_anger_main'],,,,,,,,,,,,,,,,,,,,,,,,,,,,,,,,,,,,,,,,,,,,,,,,,,02P,001,2024-12-03_19h54.51.094,SOLO_PROJECT_EXPERIMENT_NUTAN_KAIN_AU2220019,2024.1.5,None,2024-12-03 19h55.10.261727 +0530,
23,0,23,0,,,,,115.65494440001203,,,,,,,,,,,,,,,,,115.64213539997581,115.65494440001203,115.65494440001203,115.65494440001203,115.65494440001203,115.65494440001203,115.65494440001203,115.65494440001203,0.0009111000108532608,115.65494440001203,117.0219047999708,[-0.17317708333333334],[0.07552083333333333],[1],[0],[0],[1.3785754999844357],[1],['subtle_anger'],117.02309640002204,117.03621230000863,0.0004746000049635768,117.03621230000863,117.03621230000863,117.03621230000863,117.03621230000863,117.03621230000863,117.03621230000863,117.03621230000863,118.80682890000753,[-0.4466145833333333],[-0.11458333333333333],[1],[0],[0],[1.7822627000277862],[1],['subtle_anger_main'],,,,,,,,,,,,,,,,,,,,,,,,,,,,,,,,,,,,,,,,,,,,,,,,,,02P,001,2024-12-03_19h54.51.094,SOLO_PROJECT_EXPERIMENT_NUTAN_KAIN_AU2220019,2024.1.5,None,2024-12-03 19h55.10.261727 +0530,
24,0,24,0,,,,,118.82275069999741,,,,,,,,,,,,,,,,,118.81018530001165,118.82275069999741,118.82275069999741,118.82275069999741,118.82275069999741,118.82275069999741,118.82275069999741,118.82275069999741,0.0018995999707840383,118.82275069999741,120.33738709997851,[-0.3776041666666667],[-0.07421875],[1],[0],[0],[1.5250348999979906],[1],['subtle_anger'],120.33929929998703,120.34973890002584,0.0007996999775059521,120.34973890002584,120.34973890002584,120.34973890002584,120.34973890002584,120.34973890002584,120.34973890002584,120.34973890002584,121.55002199998125,[-0.4544270833333333],[-0.2734375],[1],[0],[0],[1.2092465999885462],[1],['subtle_anger_main'],,,,,,,,,,,,,,,,,,,,,,,,,,,,,,,,,,,,,,,,,,,,,,,,,,02P,001,2024-12-03_19h54.51.094,SOLO_PROJECT_EXPERIMENT_NUTAN_KAIN_AU2220019,2024.1.5,None,2024-12-03 19h55.10.261727 +0530,
25,0,25,0,,,,,121.56525340001099,,,,,,,,,,,,,,,,,121.55165380000835,121.56525340001099,121.56525340001099,121.56525340001099,121.56525340001099,121.56525340001099,121.56525340001099,121.56525340001099,0.0008651000098325312,121.56525340001099,123.48289230000228,[-0.3697916666666667],[0.4674479166666667],[1],[0],[0],[1.9297913000336848],[1],['subtle_anger'],123.48512620001566,123.49700849998044,0.0009345000144094229,123.49700849998044,123.49700849998044,123.49700849998044,123.49700849998044,123.49700849998044,123.49700849998044,123.49700849998044,125.9801297999802,[0.010416666666666666],[0.19791666666666666],[1],[0],[0],[2.493209399981424],[1],['subtle_anger_main'],,,,,,,,,,,,,,,,,,,,,,,,,,,,,,,,,,,,,,,,,,,,,,,,,,02P,001,2024-12-03_19h54.51.094,SOLO_PROJECT_EXPERIMENT_NUTAN_KAIN_AU2220019,2024.1.5,None,2024-12-03 19h55.10.261727 +0530,
26,0,26,0,,,,,125.99339969997527,,,,,,,,,,,,,,,,,125.9821351999999,125.99339969997527,125.99339969997527,125.99339969997527,125.99339969997527,125.99339969997527,125.99339969997527,125.99339969997527,0.0011070999898947775,125.99339969997527,126.86365469999146,[-0.05859375],[0.4088541666666667],[1],[0],[0],[0.8799759999965318],[1],['subtle_anger'],126.8653199999826,126.8765234000166,0.0007880999473854899,126.8765234000166,126.8765234000166,126.8765234000166,126.8765234000166,126.8765234000166,126.8765234000166,126.8765234000166,127.89434709999477,[-0.22526041666666666],[0.33203125],[1],[0],[0],[1.0275733000016771],[1],['subtle_anger_main'],,,,,,,,,,,,,,,,,,,,,,,,,,,,,,,,,,,,,,,,,,,,,,,,,,02P,001,2024-12-03_19h54.51.094,SOLO_PROJECT_EXPERIMENT_NUTAN_KAIN_AU2220019,2024.1.5,None,2024-12-03 19h55.10.261727 +0530,
27,0,27,0,,,,,127.90910910000093,,,,,,,,,,,,,,,,,127.8960584999877,127.90910910000093,127.90910910000093,127.90910910000093,127.90910910000093,127.90910910000093,127.90910910000093,127.90910910000093,0.0009442999726161361,127.90910910000093,129.67732949997298,[0.3372395833333333],[-0.4583333333333333],[1],[0],[0],[1.7798859999747947],[1],['subtle_anger'],129.67927520000376,129.69047319999663,0.0008727000094950199,129.69047319999663,129.69047319999663,129.69047319999663,129.69047319999663,129.69047319999663,129.69047319999663,129.69047319999663,131.49034369998844,[0.10807291666666667],[-0.3684895833333333],[1],[0],[0],[1.809544800024014],[1],['subtle_anger_main'],,,,,,,,,,,,,,,,,,,,,,,,,,,,,,,,,,,,,,,,,,,,,,,,,,02P,001,2024-12-03_19h54.51.094,SOLO_PROJECT_EXPERIMENT_NUTAN_KAIN_AU2220019,2024.1.5,None,2024-12-03 19h55.10.261727 +0530,
28,0,28,0,,,,,131.50552270002663,,,,,,,,,,,,,,,,,131.4924469999969,131.50552270002663,131.50552270002663,131.50552270002663,131.50552270002663,131.50552270002663,131.50552270002663,131.50552270002663,0.0011948999599553645,131.50552270002663,133.03940930002136,[0.2981770833333333],[-0.16536458333333334],[1],[0],[0],[1.5453949000220746],[1],['subtle_anger'],133.0412573000067,133.05414480000036,0.0008628999930806458,133.05414480000036,133.05414480000036,133.05414480000036,133.05414480000036,133.05414480000036,133.05414480000036,133.05414480000036,134.97123409999767,[-0.4348958333333333],[-0.20963541666666666],[1],[0],[0],[1.9283714000484906],[],[],,,,,,,,,,,,,,,,,,,,,,,,,,,,,,,,,,,,,,,,,,,,,,,,,,02P,001,2024-12-03_19h54.51.094,SOLO_PROJECT_EXPERIMENT_NUTAN_KAIN_AU2220019,2024.1.5,None,2024-12-03 19h55.10.261727 +0530,
29,0,29,0,,,,,134.9856346999877,,,,,,,,,,,,,,,,,134.97370039997622,134.9856346999877,134.9856346999877,134.9856346999877,134.9856346999877,134.9856346999877,134.9856346999877,134.9856346999877,0.001256600022315979,134.9856346999877,137.46805580001092,[0.046875],[0.14713541666666666],[1],[0],[0],[2.4928786999662407],[1],['subtle_anger'],137.4695158000104,137.48306110000703,0.0007056000176817179,137.48306110000703,137.48306110000703,137.48306110000703,137.48306110000703,137.48306110000703,137.48306110000703,137.48306110000703,138.667555299995,[0.2643229166666667],[0.5],[1],[0],[0],[1.1965968000004068],[1],['subtle_anger_main'],,,,,,,,,,,,,,,,,,,,,,,,,,,,,,,,,,,,,,,,,,,,,,,,,,02P,001,2024-12-03_19h54.51.094,SOLO_PROJECT_EXPERIMENT_NUTAN_KAIN_AU2220019,2024.1.5,None,2024-12-03 19h55.10.261727 +0530,
30,0,30,0,,,,,138.68147389998194,,,,,,,,,,,,,,,,,138.66973449999932,138.68147389998194,138.68147389998194,138.68147389998194,138.68147389998194,138.68147389998194,138.68147389998194,138.68147389998194,0.0014349999837577343,138.68147389998194,142.41614099999424,[-0.19791666666666666],[0.3059895833333333],[1],[0],[0],[3.744153900013771],[1],['subtle_anger'],142.4188843999873,142.43703630001983,0.0014051999896764755,142.43703630001983,142.43703630001983,142.43703630001983,142.43703630001983,142.43703630001983,142.43703630001983,142.43703630001983,143.945156199974,[-0.45703125],[-0.2630208333333333],[1],[0],[0],[1.5242365999729373],[1],['subtle_anger_main'],,,,,,,,,,,,,,,,,,,,,,,,,,,,,,,,,,,,,,,,,,,,,,,,,,02P,001,2024-12-03_19h54.51.094,SOLO_PROJECT_EXPERIMENT_NUTAN_KAIN_AU2220019,2024.1.5,None,2024-12-03 19h55.10.261727 +0530,
31,0,31,0,,,,,143.95981829997618,,,,,,,,,,,,,,,,,143.94660000002477,143.95981829997618,143.95981829997618,143.95981829997618,143.95981829997618,143.95981829997618,143.95981829997618,143.95981829997618,0.0008030000026337802,143.95981829997618,146.0267085999949,[0.4934895833333333],[-0.009114583333333334],[1],[0],[0],[2.0787114999839105],[1],['subtle_anger'],146.02858310000738,146.04069290001644,0.0008287999662570655,146.04069290001644,146.04069290001644,146.04069290001644,146.04069290001644,146.04069290001644,146.04069290001644,146.04069290001644,147.39185620000353,[0.48828125],[0.22265625],[1],[0],[0],[1.3617160000139847],[1],['subtle_anger_main'],,,,,,,,,,,,,,,,,,,,,,,,,,,,,,,,,,,,,,,,,,,,,,,,,,02P,001,2024-12-03_19h54.51.094,SOLO_PROJECT_EXPERIMENT_NUTAN_KAIN_AU2220019,2024.1.5,None,2024-12-03 19h55.10.261727 +0530,
32,0,32,0,,,,,147.40635369997472,,,,,,,,,,,,,,,,,147.39389240002492,147.40635369997472,147.40635369997472,147.40635369997472,147.40635369997472,147.40635369997472,147.40635369997472,147.40635369997472,0.0011634000111371279,147.40635369997472,148.9244672000059,[0.296875],[0.2734375],[1],[0],[0],[1.5285680000088178],[1],['subtle_anger'],148.9261674999725,148.93827679997776,0.0006890000076964498,148.93827679997776,148.93827679997776,148.93827679997776,148.93827679997776,148.93827679997776,148.93827679997776,148.93827679997776,150.07432389998576,[0.2630208333333333],[0.20833333333333334],[1],[0],[0],[1.1467296999762766],[1],['subtle_anger_main'],,,,,,,,,,,,,,,,,,,,,,,,,,,,,,,,,,,,,,,,,,,,,,,,,,02P,001,2024-12-03_19h54.51.094,SOLO_PROJECT_EXPERIMENT_NUTAN_KAIN_AU2220019,2024.1.5,None,2024-12-03 19h55.10.261727 +0530,
33,0,33,0,,,,,150.0877142000245,,,,,,,,,,,,,,,,,150.07681850000517,150.0877142000245,150.0877142000245,150.0877142000245,150.0877142000245,150.0877142000245,150.0877142000245,150.0877142000245,0.0013156000059098005,150.0877142000245,152.1037195000099,[-0.13020833333333334],[0.4401041666666667],[1],[0],[0],[2.025188400002662],[1],['subtle_anger'],152.10550710000098,152.11878289998276,0.0007767999777570367,152.11878289998276,152.11878289998276,152.11878289998276,152.11878289998276,152.11878289998276,152.11878289998276,152.11878289998276,154.68439200002467,[-0.07421875],[0.3763020833333333],[1],[0],[0],[2.577303599973675],[],[],,,,,,,,,,,,,,,,,,,,,,,,,,,,,,,,,,,,,,,,,,,,,,,,,,02P,001,2024-12-03_19h54.51.094,SOLO_PROJECT_EXPERIMENT_NUTAN_KAIN_AU2220019,2024.1.5,None,2024-12-03 19h55.10.261727 +0530,
34,0,34,0,,,,,154.6989437000011,,,,,,,,,,,,,,,,,154.6860491000116,154.6989437000011,154.6989437000011,154.6989437000011,154.6989437000011,154.6989437000011,154.6989437000011,154.6989437000011,0.0008999999845400453,154.6989437000011,155.86757260002196,[-0.3567708333333333],[0.2669270833333333],[1],[0],[0],[1.1802234000060707],[1],['subtle_anger'],155.86906830000225,155.88097649998963,0.0006260999944061041,155.88097649998963,155.88097649998963,155.88097649998963,155.88097649998963,155.88097649998963,155.88097649998963,155.88097649998963,160.31224639998982,[-0.020833333333333332],[-0.2552083333333333],[1],[0],[0],[4.441847899986897],[1],['subtle_anger_main'],,,,,,,,,,,,,,,,,,,,,,,,,,,,,,,,,,,,,,,,,,,,,,,,,,02P,001,2024-12-03_19h54.51.094,SOLO_PROJECT_EXPERIMENT_NUTAN_KAIN_AU2220019,2024.1.5,None,2024-12-03 19h55.10.261727 +0530,
35,0,35,0,,,,,160.3270184000139,,,,,,,,,,,,,,,,,160.31433550000656,160.3270184000139,160.3270184000139,160.3270184000139,160.3270184000139,160.3270184000139,160.3270184000139,160.3270184000139,0.0012030999641865492,160.3270184000139,162.69411919999402,[-0.3528645833333333],[0.3255208333333333],[1],[0],[0],[2.3782903000246733],[1],['subtle_anger'],162.69559199997457,162.70815600000788,0.00094369996804744,162.70815600000788,162.70815600000788,162.70815600000788,162.70815600000788,162.70815600000788,162.70815600000788,162.70815600000788,165.1070822000038,[-0.37890625],[-0.1171875],[1],[0],[0],[2.40989350003656],[1],['subtle_anger_main'],,,,,,,,,,,,,,,,,,,,,,,,,,,,,,,,,,,,,,,,,,,,,,,,,,02P,001,2024-12-03_19h54.51.094,SOLO_PROJECT_EXPERIMENT_NUTAN_KAIN_AU2220019,2024.1.5,None,2024-12-03 19h55.10.261727 +0530,
36,0,36,0,,,,,165.1220208000159,,,,,,,,,,,,,,,,,165.10885670001153,165.1220208000159,165.1220208000159,165.1220208000159,165.1220208000159,165.1220208000159,165.1220208000159,165.1220208000159,0.000992499990388751,165.1220208000159,167.788652200019,[-0.036458333333333336],[0.2265625],[1],[0],[0],[2.6782413000473753],[1],['subtle_anger'],167.79040340002393,167.80298540001968,0.0007118000066839159,167.80298540001968,167.80298540001968,167.80298540001968,167.80298540001968,167.80298540001968,167.80298540001968,167.80298540001968,169.05353209999157,[-0.3828125],[0.4192708333333333],[1],[0],[0],[1.2617982999654487],[1],['subtle_anger_main'],,,,,,,,,,,,,,,,,,,,,,,,,,,,,,,,,,,,,,,,,,,,,,,,,,02P,001,2024-12-03_19h54.51.094,SOLO_PROJECT_EXPERIMENT_NUTAN_KAIN_AU2220019,2024.1.5,None,2024-12-03 19h55.10.261727 +0530,
37,0,37,0,,,,,169.0680175999878,,,,,,,,,,,,,,,,,169.0555214000051,169.0680175999878,169.0680175999878,169.0680175999878,169.0680175999878,169.0680175999878,169.0680175999878,169.0680175999878,0.001025299949105829,169.0680175999878,175.01512419997016,[0.1953125],[-0.3658854166666667],[1],[0],[0],[5.958044899976812],[1],['subtle_anger'],175.01693069998873,175.02901240001665,0.0007078000344336033,175.02901240001665,175.02901240001665,175.02901240001665,175.02901240001665,175.02901240001665,175.02901240001665,175.02901240001665,176.21481989999302,[0.3502604166666667],[0.2747395833333333],[1],[0],[0],[1.1962402000208385],[1],['subtle_anger_main'],,,,,,,,,,,,,,,,,,,,,,,,,,,,,,,,,,,,,,,,,,,,,,,,,,02P,001,2024-12-03_19h54.51.094,SOLO_PROJECT_EXPERIMENT_NUTAN_KAIN_AU2220019,2024.1.5,None,2024-12-03 19h55.10.261727 +0530,
38,0,38,0,,,,,176.22844590002205,,,,,,,,,,,,,,,,,176.2170969999861,176.22844590002205,176.22844590002205,176.22844590002205,176.22844590002205,176.22844590002205,176.22844590002205,176.22844590002205,0.0012822000426240265,176.22844590002205,178.27994390000822,[0.13151041666666666],[0.00390625],[1],[0],[0],[2.061224900011439],[1],['subtle_anger'],178.28137719997903,178.29243209998822,0.0005927000311203301,178.29243209998822,178.29243209998822,178.29243209998822,178.29243209998822,178.29243209998822,178.29243209998822,178.29243209998822,179.31234260002384,[0.11848958333333333],[0.1875],[1],[0],[0],[1.029693100019358],[1],['subtle_anger_main'],,,,,,,,,,,,,,,,,,,,,,,,,,,,,,,,,,,,,,,,,,,,,,,,,,02P,001,2024-12-03_19h54.51.094,SOLO_PROJECT_EXPERIMENT_NUTAN_KAIN_AU2220019,2024.1.5,None,2024-12-03 19h55.10.261727 +0530,
39,0,39,0,,,,,179.325300699973,,,,,,,,,,,,,,,,,179.31466380000347,179.325300699973,179.325300699973,179.325300699973,179.325300699973,179.325300699973,179.325300699973,179.325300699973,0.0013126999838277698,179.325300699973,183.39084419998107,[-0.3619791666666667],[0.23567708333333334],[1],[0],[0],[4.074577099992894],[1],['subtle_anger'],183.39268260000972,183.40443719999166,0.0008698999881744385,183.40443719999166,183.40443719999166,183.40443719999166,183.40443719999166,183.40443719999166,183.40443719999166,183.40443719999166,185.95370409998577,[-0.41015625],[-0.4166666666666667],[1],[0],[0],[2.5594125999487005],[1],['subtle_anger_main'],,,,,,,,,,,,,,,,,,,,,,,,,,,,,,,,,,,,,,,,,,,,,,,,,,02P,001,2024-12-03_19h54.51.094,SOLO_PROJECT_EXPERIMENT_NUTAN_KAIN_AU2220019,2024.1.5,None,2024-12-03 19h55.10.261727 +0530,
40,0,40,0,,,,,185.9682465000078,,,,,,,,,,,,,,,,,185.955888699973,185.9682465000078,185.9682465000078,185.9682465000078,185.9682465000078,185.9682465000078,185.9682465000078,185.9682465000078,0.0010775999980978668,185.9682465000078,187.08642669999972,[0.07291666666666667],[0.2265625],[1],[0],[0],[1.129108500026632],[1],['subtle_anger'],187.0881087000016,187.10093499999493,0.0007659000111743808,187.10093499999493,187.10093499999493,187.10093499999493,187.10093499999493,187.10093499999493,187.10093499999493,187.10093499999493,190.5511406000005,[0.0703125],[0.3541666666666667],[1],[0],[0],[3.461563599994406],[1],['subtle_anger_main'],,,,,,,,,,,,,,,,,,,,,,,,,,,,,,,,,,,,,,,,,,,,,,,,,,02P,001,2024-12-03_19h54.51.094,SOLO_PROJECT_EXPERIMENT_NUTAN_KAIN_AU2220019,2024.1.5,None,2024-12-03 19h55.10.261727 +0530,
41,0,41,0,,,,,190.5643343999982,,,,,,,,,,,,,,,,,190.55342010001186,190.5643343999982,190.5643343999982,190.5643343999982,190.5643343999982,190.5643343999982,190.5643343999982,190.5643343999982,0.0013511000433936715,190.5643343999982,192.13183959998423,[0.3033854166666667],[-0.26953125],[1],[0],[0],[1.5767247999901883],[1],['subtle_anger'],192.13337220001267,192.1457583999727,0.0007220999686978757,192.1457583999727,192.1457583999727,192.1457583999727,192.1457583999727,192.1457583999727,192.1457583999727,192.1457583999727,194.396104799991,[0.421875],[-0.20572916666666666],[1],[0],[0],[2.2612082000123337],[1],['subtle_anger_main'],,,,,,,,,,,,,,,,,,,,,,,,,,,,,,,,,,,,,,,,,,,,,,,,,,02P,001,2024-12-03_19h54.51.094,SOLO_PROJECT_EXPERIMENT_NUTAN_KAIN_AU2220019,2024.1.5,None,2024-12-03 19h55.10.261727 +0530,
42,0,42,0,,,,,194.41037970001344,,,,,,,,,,,,,,,,,194.3985625000205,194.41037970001344,194.41037970001344,194.41037970001344,194.41037970001344,194.41037970001344,194.41037970001344,194.41037970001344,0.001483999949414283,194.41037970001344,196.0296585999895,[-0.4205729166666667],[-0.08984375],[1],[0],[0],[1.6291088000289164],[1],['subtle_anger'],196.0315561000025,196.0428522999864,0.0008239999879151583,196.0428522999864,196.0428522999864,196.0428522999864,196.0428522999864,196.0428522999864,196.0428522999864,196.0428522999864,199.52466779999668,[-0.19140625],[-0.3541666666666667],[1],[0],[0],[3.491541800030973],[1],['subtle_anger_main'],,,,,,,,,,,,,,,,,,,,,,,,,,,,,,,,,,,,,,,,,,,,,,,,,,02P,001,2024-12-03_19h54.51.094,SOLO_PROJECT_EXPERIMENT_NUTAN_KAIN_AU2220019,2024.1.5,None,2024-12-03 19h55.10.261727 +0530,
43,0,43,0,,,,,199.5381717000273,,,,,,,,,,,,,,,,,199.52682730002562,199.5381717000273,199.5381717000273,199.5381717000273,199.5381717000273,199.5381717000273,199.5381717000273,199.5381717000273,0.001109300006646663,199.5381717000273,200.74068440002156,[-0.4361979166666667],[0.3346354166666667],[1],[0],[0],[1.2122240000171587],[1],['subtle_anger'],200.74234170001,200.7542955999961,0.0006897000130265951,200.7542955999961,200.7542955999961,200.7542955999961,200.7542955999961,200.7542955999961,200.7542955999961,200.7542955999961,204.86893170000985,[0.09505208333333333],[-0.3984375],[1],[0],[0],[4.124914200045168],[1],['subtle_anger_main'],,,,,,,,,,,,,,,,,,,,,,,,,,,,,,,,,,,,,,,,,,,,,,,,,,02P,001,2024-12-03_19h54.51.094,SOLO_PROJECT_EXPERIMENT_NUTAN_KAIN_AU2220019,2024.1.5,None,2024-12-03 19h55.10.261727 +0530,
44,0,44,0,,,,,204.88322550000157,,,,,,,,,,,,,,,,,204.87147229997208,204.88322550000157,204.88322550000157,204.88322550000157,204.88322550000157,204.88322550000157,204.88322550000157,204.88322550000157,0.0012100000167265534,204.88322550000157,206.2504022999783,[0.42578125],[0.4466145833333333],[1],[0],[0],[1.3774414000217803],[1],['subtle_anger'],206.2522093000007,206.26498159999028,0.0008780999924056232,206.26498159999028,206.26498159999028,206.26498159999028,206.26498159999028,206.26498159999028,206.26498159999028,206.26498159999028,208.13201729999855,[0.23958333333333334],[-0.4440104166666667],[1],[0],[0],[1.8783285000245087],[1],['subtle_anger_main'],,,,,,,,,,,,,,,,,,,,,,,,,,,,,,,,,,,,,,,,,,,,,,,,,,02P,001,2024-12-03_19h54.51.094,SOLO_PROJECT_EXPERIMENT_NUTAN_KAIN_AU2220019,2024.1.5,None,2024-12-03 19h55.10.261727 +0530,
45,0,45,0,,,,,208.14670879999176,,,,,,,,,,,,,,,,,208.13344190001953,208.14670879999176,208.14670879999176,208.14670879999176,208.14670879999176,208.14670879999176,208.14670879999176,208.14670879999176,0.0007734000100754201,208.14670879999176,209.33078610000666,[0.22265625],[0.2265625],[1],[0],[0],[1.1959753999835812],[1],['subtle_anger'],209.33336079999572,209.34573020000244,0.0011549999471753836,209.34573020000244,209.34573020000244,209.34573020000244,209.34573020000244,209.34573020000244,209.34573020000244,209.34573020000244,211.17953480000142,[-0.375],[0.0],[1],[0],[0],[1.8441873000119813],[1],['subtle_anger_main'],,,,,,,,,,,,,,,,,,,,,,,,,,,,,,,,,,,,,,,,,,,,,,,,,,02P,001,2024-12-03_19h54.51.094,SOLO_PROJECT_EXPERIMENT_NUTAN_KAIN_AU2220019,2024.1.5,None,2024-12-03 19h55.10.261727 +0530,
46,0,46,0,,,,,211.19389360002242,,,,,,,,,,,,,,,,,211.18186970002716,211.19389360002242,211.19389360002242,211.19389360002242,211.19389360002242,211.19389360002242,211.19389360002242,211.19389360002242,0.001264900027308613,211.19389360002242,212.72861360001843,[0.3111979166666667],[-0.3177083333333333],[1],[0],[0],[1.5451870000106283],[1],['subtle_anger'],212.73002209997503,212.74240089999512,0.000673700007610023,212.74240089999512,212.74240089999512,212.74240089999512,212.74240089999512,212.74240089999512,212.74240089999512,212.74240089999512,214.69192509999266,[-0.18880208333333334],[0.45703125],[1],[0],[0],[1.9605275999638252],[1],['subtle_anger_main'],,,,,,,,,,,,,,,,,,,,,,,,,,,,,,,,,,,,,,,,,,,,,,,,,,02P,001,2024-12-03_19h54.51.094,SOLO_PROJECT_EXPERIMENT_NUTAN_KAIN_AU2220019,2024.1.5,None,2024-12-03 19h55.10.261727 +0530,
47,0,47,0,,,,,214.70694180001738,,,,,,,,,,,,,,,,,214.69406349997735,214.70694180001738,214.70694180001738,214.70694180001738,214.70694180001738,214.70694180001738,214.70694180001738,214.70694180001738,0.001247100008185953,214.70694180001738,216.32545359997312,[0.23828125],[-0.20833333333333334],[1],[0],[0],[1.6297930000000633],[1],['subtle_anger'],216.32728600001428,216.3386973000015,0.0007765000336803496,216.3386973000015,216.3386973000015,216.3386973000015,216.3386973000015,216.3386973000015,216.3386973000015,216.3386973000015,217.4729907999863,[-0.013020833333333334],[0.4348958333333333],[1],[0],[0],[1.1441020999918692],[1],['subtle_anger_main'],,,,,,,,,,,,,,,,,,,,,,,,,,,,,,,,,,,,,,,,,,,,,,,,,,02P,001,2024-12-03_19h54.51.094,SOLO_PROJECT_EXPERIMENT_NUTAN_KAIN_AU2220019,2024.1.5,None,2024-12-03 19h55.10.261727 +0530,
48,0,48,0,,,,,217.48747370002093,,,,,,,,,,,,,,,,,217.47537120000925,217.48747370002093,217.48747370002093,217.48747370002093,217.48747370002093,217.48747370002093,217.48747370002093,217.48747370002093,0.001139500003773719,217.48747370002093,218.93817460001446,[-0.453125],[0.21614583333333334],[1],[0],[0],[1.4612931999727152],[1],['subtle_anger'],218.93975939997472,218.9526901000063,0.0006345000001601875,218.9526901000063,218.9526901000063,218.9526901000063,218.9526901000063,218.9526901000063,218.9526901000063,218.9526901000063,221.38564860000042,[-0.5234375],[-0.3229166666666667],[1],[0],[0],[2.444604799966328],[1],['subtle_anger_main'],,,,,,,,,,,,,,,,,,,,,,,,,,,,,,,,,,,,,,,,,,,,,,,,,,02P,001,2024-12-03_19h54.51.094,SOLO_PROJECT_EXPERIMENT_NUTAN_KAIN_AU2220019,2024.1.5,None,2024-12-03 19h55.10.261727 +0530,
49,0,49,0,,,,,221.40053949999856,,,,,,,,,,,,,,,,,221.3874313000124,221.40053949999856,221.40053949999856,221.40053949999856,221.40053949999856,221.40053949999856,221.40053949999856,221.40053949999856,0.0009532999829389155,221.40053949999856,223.71693539997796,[-0.2799479166666667],[-0.140625],[1],[0],[0],[2.3282163999974728],[],[],223.71839910000563,223.7315034000203,0.0006285000126808882,223.7315034000203,223.7315034000203,223.7315034000203,223.7315034000203,223.7315034000203,223.7315034000203,223.7315034000203,229.84786390000954,[-0.21223958333333334],[0.08463541666666667],[1],[0],[0],[6.127579399966635],[1],['subtle_anger_main'],,,,,,,,,,,,,,,,,,,,,,,,,,,,,,,,,,,,,,,,,,,,,,,,,,02P,001,2024-12-03_19h54.51.094,SOLO_PROJECT_EXPERIMENT_NUTAN_KAIN_AU2220019,2024.1.5,None,2024-12-03 19h55.10.261727 +0530,
,,,,,,,,,,,,,,,,,,,,,,,,,,,,,,,,,,,,,,,,,,,,,,,,,,,,,,,,,,,,,,,229.85105579998344,229.87574889999814,229.87574889999814,229.87574889999814,311.46451710001566,space,81.5735546000069,None,,,,,,,,,,,,,,,,,,,,,,,,,,,,,,,,,,,,,,,,,,02P,001,2024-12-03_19h54.51.094,SOLO_PROJECT_EXPERIMENT_NUTAN_KAIN_AU2220019,2024.1.5,None,2024-12-03 19h55.10.261727 +0530,
,,,,0,0,0,0,311.55080159998033,,,,,,,,,,,,,,,,,,,,,,,,,,,,,,,,,,,,,,,,,,,,,,,,,,,,,,,,,,,,,,,311.4666918999865,311.55080159998033,311.55080159998033,311.55080159998033,311.55080159998033,311.55080159998033,311.55080159998033,311.55080159998033,0.0030521000153385103,311.55080159998033,312.697191299987,[-0.2708333333333333],[0.3190104166666667],[1],[0],[0],[1.2284911999595352],[1],['clear_anger'],312.7004561999929,313.1704104000237,0.0009699999936856329,313.1704104000237,313.1704104000237,313.1704104000237,313.1704104000237,313.1704104000237,313.1704104000237,313.1704104000237,315.8928273000056,[0.24348958333333334],[0.08984375],[1],[0],[0],[3.190738900040742],[1],['clear_anger_main'],,,,02P,001,2024-12-03_19h54.51.094,SOLO_PROJECT_EXPERIMENT_NUTAN_KAIN_AU2220019,2024.1.5,None,2024-12-03 19h55.10.261727 +0530,
,,,,1,0,1,0,315.90783689997625,,,,,,,,,,,,,,,,,,,,,,,,,,,,,,,,,,,,,,,,,,,,,,,,,,,,,,,,,,,,,,,315.89494540001033,315.90783689997625,315.90783689997625,315.90783689997625,315.90783689997625,315.90783689997625,315.90783689997625,315.90783689997625,0.0009238999919034541,315.90783689997625,316.9586021999712,[0.15755208333333334],[0.14583333333333334],[1],[0],[0],[1.0623898999765515],[1],['clear_anger'],316.96011019998696,316.9732169000199,0.0006139999604783952,316.9732169000199,316.9732169000199,316.9732169000199,316.9732169000199,316.9732169000199,316.9732169000199,316.9732169000199,319.4089053000207,[0.23828125],[0.18619791666666666],[1],[0],[0],[2.4474139000521973],[1],['clear_anger_main'],,,,02P,001,2024-12-03_19h54.51.094,SOLO_PROJECT_EXPERIMENT_NUTAN_KAIN_AU2220019,2024.1.5,None,2024-12-03 19h55.10.261727 +0530,
,,,,2,0,2,0,319.42351599998074,,,,,,,,,,,,,,,,,,,,,,,,,,,,,,,,,,,,,,,,,,,,,,,,,,,,,,,,,,,,,,,319.411565300019,319.42351599998074,319.42351599998074,319.42351599998074,319.42351599998074,319.42351599998074,319.42351599998074,319.42351599998074,0.001677700027357787,319.42351599998074,320.7060043999809,[0.20572916666666666],[-0.11458333333333333],[1],[0],[0],[1.2925746999680996],[1],['clear_anger'],320.70714189996943,320.71975859999657,0.0004976000054739416,320.71975859999657,320.71975859999657,320.71975859999657,320.71975859999657,320.71975859999657,320.71975859999657,320.71975859999657,322.32150169997476,[-0.4205729166666667],[0.2669270833333333],[1],[0],[0],[1.6131429999950342],[1],['clear_anger_main'],,,,02P,001,2024-12-03_19h54.51.094,SOLO_PROJECT_EXPERIMENT_NUTAN_KAIN_AU2220019,2024.1.5,None,2024-12-03 19h55.10.261727 +0530,
,,,,3,0,3,0,322.3346407000208,,,,,,,,,,,,,,,,,,,,,,,,,,,,,,,,,,,,,,,,,,,,,,,,,,,,,,,,,,,,,,,322.3232037000125,322.3346407000208,322.3346407000208,322.3346407000208,322.3346407000208,322.3346407000208,322.3346407000208,322.3346407000208,0.0009413000079803169,322.3346407000208,324.1022121999995,[0.24348958333333334],[-0.41796875],[1],[0],[0],[1.7776645999983884],[1],['clear_anger'],324.1040114000207,324.11659559997497,0.0007402999908663332,324.11659559997497,324.11659559997497,324.11659559997497,324.11659559997497,324.11659559997497,324.11659559997497,324.11659559997497,325.3832548999926,[-0.4752604166666667],[0.20442708333333334],[1],[0],[0],[1.2779113000142388],[1],['clear_anger_main'],,,,02P,001,2024-12-03_19h54.51.094,SOLO_PROJECT_EXPERIMENT_NUTAN_KAIN_AU2220019,2024.1.5,None,2024-12-03 19h55.10.261727 +0530,
,,,,4,0,4,0,325.39852149999933,,,,,,,,,,,,,,,,,,,,,,,,,,,,,,,,,,,,,,,,,,,,,,,,,,,,,,,,,,,,,,,325.3854285000125,325.39852149999933,325.39852149999933,325.39852149999933,325.39852149999933,325.39852149999933,325.39852149999933,325.39852149999933,0.0010771999950520694,325.39852149999933,330.3628581999801,[-0.109375],[0.11197916666666667],[1],[0],[0],[4.975947300030384],[1],['clear_anger'],330.3647222999716,330.3767197999987,0.0006137999589554965,330.3767197999987,330.3767197999987,330.3767197999987,330.3767197999987,330.3767197999987,330.3767197999987,330.3767197999987,332.0611345000216,[0.4036458333333333],[-0.24739583333333334],[1],[0],[0],[1.6950092000188306],[1],['clear_anger_main'],,,,02P,001,2024-12-03_19h54.51.094,SOLO_PROJECT_EXPERIMENT_NUTAN_KAIN_AU2220019,2024.1.5,None,2024-12-03 19h55.10.261727 +0530,
,,,,5,0,5,0,332.0752499999944,,,,,,,,,,,,,,,,,,,,,,,,,,,,,,,,,,,,,,,,,,,,,,,,,,,,,,,,,,,,,,,332.0633149999776,332.0752499999944,332.0752499999944,332.0752499999944,332.0752499999944,332.0752499999944,332.0752499999944,332.0752499999944,0.0011567999608814716,332.0752499999944,333.4585944999708,[0.3151041666666667],[0.45703125],[1],[0],[0],[1.3939059000113048],[1],['clear_anger'],333.4602838999708,333.4738153999788,0.000687599997036159,333.4738153999788,333.4738153999788,333.4738153999788,333.4738153999788,333.4738153999788,333.4738153999788,333.4738153999788,336.3075052999775,[0.09505208333333333],[0.4583333333333333],[1],[0],[0],[2.8457637999672443],[1],['clear_anger_main'],,,,02P,001,2024-12-03_19h54.51.094,SOLO_PROJECT_EXPERIMENT_NUTAN_KAIN_AU2220019,2024.1.5,None,2024-12-03 19h55.10.261727 +0530,
,,,,6,0,6,0,336.3223937000148,,,,,,,,,,,,,,,,,,,,,,,,,,,,,,,,,,,,,,,,,,,,,,,,,,,,,,,,,,,,,,,336.31125540001085,336.3223937000148,336.3223937000148,336.3223937000148,336.3223937000148,336.3223937000148,336.3223937000148,336.3223937000148,0.0015122999902814627,336.3223937000148,340.0857567000203,[0.5260416666666666],[-0.2760416666666667],[1],[0],[0],[3.772842300008051],[1],['clear_anger'],340.0868999999948,340.10108940000646,0.0004552999744191766,340.10108940000646,340.10108940000646,340.10108940000646,340.10108940000646,340.10108940000646,340.10108940000646,340.10108940000646,341.27090240002144,[0.22135416666666666],[0.2747395833333333],[1],[0],[0],[1.1824653000221588],[1],['clear_anger_main'],,,,02P,001,2024-12-03_19h54.51.094,SOLO_PROJECT_EXPERIMENT_NUTAN_KAIN_AU2220019,2024.1.5,None,2024-12-03 19h55.10.261727 +0530,
,,,,7,0,7,0,341.2988630000036,,,,,,,,,,,,,,,,,,,,,,,,,,,,,,,,,,,,,,,,,,,,,,,,,,,,,,,,,,,,,,,341.27365370001644,341.2988630000036,341.2988630000036,341.2988630000036,341.2988630000036,341.2988630000036,341.2988630000036,341.2988630000036,0.001557700044941157,341.2988630000036,342.5847528000013,[-0.13541666666666666],[0.3880208333333333],[1],[0],[0],[1.3092772000236437],[1],['clear_anger'],342.5862682000152,342.59787910000887,0.0007370999664999545,342.59787910000887,342.59787910000887,342.59787910000887,342.59787910000887,342.59787910000887,342.59787910000887,342.59787910000887,343.5000879999716,[-0.1875],[0.20963541666666666],[1],[0],[0],[0.9124301000265405],[1],['clear_anger_main'],,,,02P,001,2024-12-03_19h54.51.094,SOLO_PROJECT_EXPERIMENT_NUTAN_KAIN_AU2220019,2024.1.5,None,2024-12-03 19h55.10.261727 +0530,
,,,,8,0,8,0,343.5141400999855,,,,,,,,,,,,,,,,,,,,,,,,,,,,,,,,,,,,,,,,,,,,,,,,,,,,,,,,,,,,,,,343.50207559997216,343.5141400999855,343.5141400999855,343.5141400999855,343.5141400999855,343.5141400999855,343.5141400999855,343.5141400999855,0.001075300038792193,343.5141400999855,344.91410200000973,[0.2877604166666667],[-0.125],[1],[0],[0],[1.4106314000091515],[1],['clear_anger'],344.91546719998587,344.92875179997645,0.0006494999979622662,344.92875179997645,344.92875179997645,344.92875179997645,344.92875179997645,344.92875179997645,344.92875179997645,344.92875179997645,346.0468565999763,[-0.2981770833333333],[0.024739583333333332],[1],[0],[0],[1.129971700021997],[1],['clear_anger_main'],,,,02P,001,2024-12-03_19h54.51.094,SOLO_PROJECT_EXPERIMENT_NUTAN_KAIN_AU2220019,2024.1.5,None,2024-12-03 19h55.10.261727 +0530,
,,,,9,0,9,0,346.0619009999791,,,,,,,,,,,,,,,,,,,,,,,,,,,,,,,,,,,,,,,,,,,,,,,,,,,,,,,,,,,,,,,346.04962120001437,346.0619009999791,346.0619009999791,346.0619009999791,346.0619009999791,346.0619009999791,346.0619009999791,346.0619009999791,0.0010864000068977475,346.0619009999791,349.7931230000104,[0.41015625],[-0.1328125],[1],[0],[0],[3.742262399988249],[1],['clear_anger'],349.7947076000273,349.8073311999906,0.0004566000425256789,349.8073311999906,349.8073311999906,349.8073311999906,349.8073311999906,349.8073311999906,349.8073311999906,349.8073311999906,351.26137969997944,[0.34375],[0.5],[1],[0],[0],[1.4650473999790847],[1],['clear_anger_main'],,,,02P,001,2024-12-03_19h54.51.094,SOLO_PROJECT_EXPERIMENT_NUTAN_KAIN_AU2220019,2024.1.5,None,2024-12-03 19h55.10.261727 +0530,
,,,,10,0,10,0,351.280895599979,,,,,,,,,,,,,,,,,,,,,,,,,,,,,,,,,,,,,,,,,,,,,,,,,,,,,,,,,,,,,,,351.2652694999706,351.280895599979,351.280895599979,351.280895599979,351.280895599979,351.280895599979,351.280895599979,351.280895599979,0.002195500012021512,351.280895599979,354.82232059998205,[0.4309895833333333],[-0.2747395833333333],[1],[0],[0],[3.5547282000188716],[1],['clear_anger'],354.824030400021,354.8362636999809,0.0007876000017859042,354.8362636999809,354.8362636999809,354.8362636999809,354.8362636999809,354.8362636999809,354.8362636999809,354.8362636999809,356.8206011999864,[0.359375],[0.21484375],[1],[0],[0],[1.9950602000462823],[1],['clear_anger_main'],,,,02P,001,2024-12-03_19h54.51.094,SOLO_PROJECT_EXPERIMENT_NUTAN_KAIN_AU2220019,2024.1.5,None,2024-12-03 19h55.10.261727 +0530,
,,,,11,0,11,0,356.83402050001314,,,,,,,,,,,,,,,,,,,,,,,,,,,,,,,,,,,,,,,,,,,,,,,,,,,,,,,,,,,,,,,356.8227027999819,356.83402050001314,356.83402050001314,356.83402050001314,356.83402050001314,356.83402050001314,356.83402050001314,356.83402050001314,0.0010814000270329416,356.83402050001314,360.7833340999787,[-0.11328125],[0.0859375],[1],[0],[0],[3.9591987999738194],[1],['clear_anger'],360.7851125000161,360.7970528000151,0.000805600022431463,360.7970528000151,360.7970528000151,360.7970528000151,360.7970528000151,360.7970528000151,360.7970528000151,360.7970528000151,361.3652051999816,[-0.11328125],[0.0859375],[1],[0],[0],[0.5786054999916814],[1],['clear_anger_main'],,,,02P,001,2024-12-03_19h54.51.094,SOLO_PROJECT_EXPERIMENT_NUTAN_KAIN_AU2220019,2024.1.5,None,2024-12-03 19h55.10.261727 +0530,
,,,,12,0,12,0,361.3794284000178,,,,,,,,,,,,,,,,,,,,,,,,,,,,,,,,,,,,,,,,,,,,,,,,,,,,,,,,,,,,,,,361.3668141000089,361.3794284000178,361.3794284000178,361.3794284000178,361.3794284000178,361.3794284000178,361.3794284000178,361.3794284000178,0.0008163999882526696,361.3794284000178,362.93146900000283,[0.028645833333333332],[-0.234375],[1],[0],[0],[1.5634880000143312],[1],['clear_anger'],362.933057199989,362.9448861000128,0.000722800032235682,362.9448861000128,362.9448861000128,362.9448861000128,362.9448861000128,362.9448861000128,362.9448861000128,362.9448861000128,364.29730149998795,[-0.296875],[-0.22005208333333334],[1],[0],[0],[1.362304700014647],[1],['clear_anger_main'],,,,02P,001,2024-12-03_19h54.51.094,SOLO_PROJECT_EXPERIMENT_NUTAN_KAIN_AU2220019,2024.1.5,None,2024-12-03 19h55.10.261727 +0530,
,,,,13,0,13,0,364.3181053000153,,,,,,,,,,,,,,,,,,,,,,,,,,,,,,,,,,,,,,,,,,,,,,,,,,,,,,,,,,,,,,,364.30119690002175,364.3181053000153,364.3181053000153,364.3181053000153,364.3181053000153,364.3181053000153,364.3181053000153,364.3181053000153,0.0022456999868154526,364.3181053000153,366.1956917999778,[0.2890625],[-0.3971354166666667],[1],[0],[0],[1.8920089000021107],[1],['clear_anger'],366.19723859999795,366.2081390999956,0.0007584000122733414,366.2081390999956,366.2081390999956,366.2081390999956,366.2081390999956,366.2081390999956,366.2081390999956,366.2081390999956,367.87517120002303,[0.09505208333333333],[-0.34765625],[1],[0],[0],[1.6765008000074886],[1],['clear_anger_main'],,,,02P,001,2024-12-03_19h54.51.094,SOLO_PROJECT_EXPERIMENT_NUTAN_KAIN_AU2220019,2024.1.5,None,2024-12-03 19h55.10.261727 +0530,
,,,,14,0,14,0,367.8905957000097,,,,,,,,,,,,,,,,,,,,,,,,,,,,,,,,,,,,,,,,,,,,,,,,,,,,,,,,,,,,,,,367.8771787000005,367.8905957000097,367.8905957000097,367.8905957000097,367.8905957000097,367.8905957000097,367.8905957000097,367.8905957000097,0.0012298999936319888,367.8905957000097,369.65645120001864,[-0.3658854166666667],[-0.2421875],[1],[0],[0],[1.7776995000313036],[1],['clear_anger'],369.65827539999736,369.6714679999859,0.0006947999936528504,369.6714679999859,369.6714679999859,369.6714679999859,369.6714679999859,369.6714679999859,369.6714679999859,369.6714679999859,374.5025810999796,[-0.18619791666666666],[-0.2903645833333333],[1],[0],[0],[4.842944800038822],[1],['clear_anger_main'],,,,02P,001,2024-12-03_19h54.51.094,SOLO_PROJECT_EXPERIMENT_NUTAN_KAIN_AU2220019,2024.1.5,None,2024-12-03 19h55.10.261727 +0530,
,,,,15,0,15,0,374.51682459999574,,,,,,,,,,,,,,,,,,,,,,,,,,,,,,,,,,,,,,,,,,,,,,,,,,,,,,,,,,,,,,,374.50443680002354,374.51682459999574,374.51682459999574,374.51682459999574,374.51682459999574,374.51682459999574,374.51682459999574,374.51682459999574,0.0010449999826960266,374.51682459999574,377.38602269999683,[0.19270833333333334],[-0.4375],[1],[0],[0],[2.8799118000315502],[1],['clear_anger'],377.38830589997815,377.40035239997087,0.0009958000155165792,377.40035239997087,377.40035239997087,377.40035239997087,377.40035239997087,377.40035239997087,377.40035239997087,377.40035239997087,378.6478892000159,[0.18359375],[0.21875],[1],[0],[0],[1.257928200007882],[1],['clear_anger_main'],,,,02P,001,2024-12-03_19h54.51.094,SOLO_PROJECT_EXPERIMENT_NUTAN_KAIN_AU2220019,2024.1.5,None,2024-12-03 19h55.10.261727 +0530,
,,,,16,0,16,0,378.6631119999802,,,,,,,,,,,,,,,,,,,,,,,,,,,,,,,,,,,,,,,,,,,,,,,,,,,,,,,,,,,,,,,378.6492764999857,378.6631119999802,378.6631119999802,378.6631119999802,378.6631119999802,378.6631119999802,378.6631119999802,378.6631119999802,0.0007984000258147717,378.6631119999802,380.34649700002046,[0.41015625],[-0.3502604166666667],[1],[0],[0],[1.6960185000207275],[1],['clear_anger'],380.3480927000055,380.36141209997004,0.0007353000110015273,380.36141209997004,380.36141209997004,380.36141209997004,380.36141209997004,380.36141209997004,380.36141209997004,380.36141209997004,381.99527710000984,[-0.20442708333333334],[0.22786458333333334],[1],[0],[0],[1.6456562000093982],[1],['clear_anger_main'],,,,02P,001,2024-12-03_19h54.51.094,SOLO_PROJECT_EXPERIMENT_NUTAN_KAIN_AU2220019,2024.1.5,None,2024-12-03 19h55.10.261727 +0530,
,,,,17,0,17,0,382.0096295999829,,,,,,,,,,,,,,,,,,,,,,,,,,,,,,,,,,,,,,,,,,,,,,,,,,,,,,,,,,,,,,,381.9972062999732,382.0096295999829,382.0096295999829,382.0096295999829,382.0096295999829,382.0096295999829,382.0096295999829,382.0096295999829,0.001004299963824451,382.0096295999829,383.02700880001066,[-0.3919270833333333],[-0.0703125],[1],[0],[0],[1.0284152000094764],[],[],383.0285365000018,383.0418863000232,0.000651800015475601,383.0418863000232,383.0418863000232,383.0418863000232,383.0418863000232,383.0418863000232,383.0418863000232,383.0418863000232,385.74184279999463,[-0.2565104166666667],[-0.21744791666666666],[1],[0],[0],[2.711687200004235],[1],['clear_anger_main'],,,,02P,001,2024-12-03_19h54.51.094,SOLO_PROJECT_EXPERIMENT_NUTAN_KAIN_AU2220019,2024.1.5,None,2024-12-03 19h55.10.261727 +0530,
,,,,18,0,18,0,385.7554764000233,,,,,,,,,,,,,,,,,,,,,,,,,,,,,,,,,,,,,,,,,,,,,,,,,,,,,,,,,,,,,,,385.74433640000643,385.7554764000233,385.7554764000233,385.7554764000233,385.7554764000233,385.7554764000233,385.7554764000233,385.7554764000233,0.001199799997266382,385.7554764000233,386.89234099996975,[0.2955729166666667],[0.4244791666666667],[1],[0],[0],[1.1463432000018656],[1],['clear_anger'],386.89434539998183,386.90544940001564,0.0009033999522216618,386.90544940001564,386.90544940001564,386.90544940001564,386.90544940001564,386.90544940001564,386.90544940001564,386.90544940001564,388.05547289998503,[-0.3958333333333333],[-0.23697916666666666],[1],[0],[0],[1.1595364999957383],[1],['clear_anger_main'],,,,02P,001,2024-12-03_19h54.51.094,SOLO_PROJECT_EXPERIMENT_NUTAN_KAIN_AU2220019,2024.1.5,None,2024-12-03 19h55.10.261727 +0530,
,,,,19,0,19,0,388.07030770002166,,,,,,,,,,,,,,,,,,,,,,,,,,,,,,,,,,,,,,,,,,,,,,,,,,,,,,,,,,,,,,,388.05745289998595,388.07030770002166,388.07030770002166,388.07030770002166,388.07030770002166,388.07030770002166,388.07030770002166,388.07030770002166,0.001166399975772947,388.07030770002166,389.67108030000236,[0.4986979166666667],[0.24479166666666666],[1],[0],[0],[1.6121838000253774],[1],['clear_anger'],389.6726762999897,389.6855341999908,0.0006487999926321208,389.6855341999908,389.6855341999908,389.6855341999908,389.6855341999908,389.6855341999908,389.6855341999908,389.6855341999908,392.7351882000221,[-0.3046875],[0.3528645833333333],[1],[0],[0],[3.0610845999908634],[1],['clear_anger_main'],,,,02P,001,2024-12-03_19h54.51.094,SOLO_PROJECT_EXPERIMENT_NUTAN_KAIN_AU2220019,2024.1.5,None,2024-12-03 19h55.10.261727 +0530,
,,,,20,0,20,0,392.74876909999875,,,,,,,,,,,,,,,,,,,,,,,,,,,,,,,,,,,,,,,,,,,,,,,,,,,,,,,,,,,,,,,392.73725710000144,392.74876909999875,392.74876909999875,392.74876909999875,392.74876909999875,392.74876909999875,392.74876909999875,392.74876909999875,0.0011617999989539385,392.74876909999875,393.81709690002026,[-0.18619791666666666],[0.3802083333333333],[1],[0],[0],[1.0784013999509625],[1],['clear_anger'],393.81844230002025,393.83133080002153,0.0005881999968551099,393.83133080002153,393.83133080002153,393.83133080002153,393.83133080002153,393.83133080002153,393.83133080002153,393.83133080002153,395.4489996000193,[0.3697916666666667],[0.3294270833333333],[1],[0],[0],[1.6292286000098102],[1],['clear_anger_main'],,,,02P,001,2024-12-03_19h54.51.094,SOLO_PROJECT_EXPERIMENT_NUTAN_KAIN_AU2220019,2024.1.5,None,2024-12-03 19h55.10.261727 +0530,
,,,,21,0,21,0,395.46297170000616,,,,,,,,,,,,,,,,,,,,,,,,,,,,,,,,,,,,,,,,,,,,,,,,,,,,,,,,,,,,,,,395.4508070999873,395.46297170000616,395.46297170000616,395.46297170000616,395.46297170000616,395.46297170000616,395.46297170000616,395.46297170000616,0.0010119000216946006,395.46297170000616,396.6307968000183,[-0.44140625],[-0.20572916666666666],[1],[0],[0],[1.1784902000217699],[1],['clear_anger'],396.6325824999949,396.644819499983,0.0007137000211514533,396.644819499983,396.644819499983,396.644819499983,396.644819499983,396.644819499983,396.644819499983,396.644819499983,397.4974046999705,[-0.2760416666666667],[0.203125],[1],[0],[0],[0.8631345999892801],[1],['clear_anger_main'],,,,02P,001,2024-12-03_19h54.51.094,SOLO_PROJECT_EXPERIMENT_NUTAN_KAIN_AU2220019,2024.1.5,None,2024-12-03 19h55.10.261727 +0530,
,,,,22,0,22,0,397.51419249997707,,,,,,,,,,,,,,,,,,,,,,,,,,,,,,,,,,,,,,,,,,,,,,,,,,,,,,,,,,,,,,,397.50071779999416,397.51419249997707,397.51419249997707,397.51419249997707,397.51419249997707,397.51419249997707,397.51419249997707,397.51419249997707,0.0014538000104948878,397.51419249997707,398.6458849000046,[0.08723958333333333],[0.13020833333333334],[1],[0],[0],[1.1434495000285096],[],[],398.6474905000068,398.6597752000089,0.0006388999754562974,398.6597752000089,398.6597752000089,398.6597752000089,398.6597752000089,398.6597752000089,398.6597752000089,398.6597752000089,400.759510200005,[0.40625],[0.4739583333333333],[1],[0],[0],[2.1106347999884747],[1],['clear_anger_main'],,,,02P,001,2024-12-03_19h54.51.094,SOLO_PROJECT_EXPERIMENT_NUTAN_KAIN_AU2220019,2024.1.5,None,2024-12-03 19h55.10.261727 +0530,
,,,,23,0,23,0,400.7746610000031,,,,,,,,,,,,,,,,,,,,,,,,,,,,,,,,,,,,,,,,,,,,,,,,,,,,,,,,,,,,,,,400.76183319999836,400.7746610000031,400.7746610000031,400.7746610000031,400.7746610000031,400.7746610000031,400.7746610000031,400.7746610000031,0.0013055999879725277,400.7746610000031,404.57388250000076,[0.48828125],[0.3802083333333333],[1],[0],[0],[3.8103385999565944],[1],['clear_anger'],404.57566470000893,404.5872694000136,0.0007853000424802303,404.5872694000136,404.5872694000136,404.5872694000136,404.5872694000136,404.5872694000136,404.5872694000136,404.5872694000136,406.8209056999767,[0.22395833333333334],[-0.23046875],[1],[0],[0],[2.243665800022427],[1],['clear_anger_main'],,,,02P,001,2024-12-03_19h54.51.094,SOLO_PROJECT_EXPERIMENT_NUTAN_KAIN_AU2220019,2024.1.5,None,2024-12-03 19h55.10.261727 +0530,
,,,,24,0,24,0,406.8350516000064,,,,,,,,,,,,,,,,,,,,,,,,,,,,,,,,,,,,,,,,,,,,,,,,,,,,,,,,,,,,,,,406.82313009997597,406.8350516000064,406.8350516000064,406.8350516000064,406.8350516000064,406.8350516000064,406.8350516000064,406.8350516000064,0.0011100000119768083,406.8350516000064,409.4015401999932,[-0.3255208333333333],[-0.4557291666666667],[1],[0],[0],[2.576903799956199],[1],['clear_anger'],409.40295110002626,409.4160519000143,0.0006351999472826719,409.4160519000143,409.4160519000143,409.4160519000143,409.4160519000143,409.4160519000143,409.4160519000143,409.4160519000143,410.80080289999023,[0.06640625],[-0.12630208333333334],[1],[0],[0],[1.3964670000132173],[],[],,,,02P,001,2024-12-03_19h54.51.094,SOLO_PROJECT_EXPERIMENT_NUTAN_KAIN_AU2220019,2024.1.5,None,2024-12-03 19h55.10.261727 +0530,
,,,,25,0,25,0,410.8148453999893,,,,,,,,,,,,,,,,,,,,,,,,,,,,,,,,,,,,,,,,,,,,,,,,,,,,,,,,,,,,,,,410.8027874000254,410.8148453999893,410.8148453999893,410.8148453999893,410.8148453999893,410.8148453999893,410.8148453999893,410.8148453999893,0.0011329000117257237,410.8148453999893,412.3818173999898,[-0.4674479166666667],[-0.4505208333333333],[1],[0],[0],[1.5776745000039227],[1],['clear_anger'],412.38315960002365,412.3965996999759,0.0006125000072643161,412.3965996999759,412.3965996999759,412.3965996999759,412.3965996999759,412.3965996999759,412.3965996999759,412.3965996999759,413.71440120000625,[0.359375],[0.14453125],[1],[0],[0],[1.3298897999920882],[1],['clear_anger_main'],,,,02P,001,2024-12-03_19h54.51.094,SOLO_PROJECT_EXPERIMENT_NUTAN_KAIN_AU2220019,2024.1.5,None,2024-12-03 19h55.10.261727 +0530,
,,,,26,0,26,0,413.7282513999962,,,,,,,,,,,,,,,,,,,,,,,,,,,,,,,,,,,,,,,,,,,,,,,,,,,,,,,,,,,,,,,413.7168286999804,413.7282513999962,413.7282513999962,413.7282513999962,413.7282513999962,413.7282513999962,413.7282513999962,413.7282513999962,0.001310699968598783,413.7282513999962,414.614365299989,[0.24348958333333334],[0.20572916666666666],[1],[0],[0],[0.8958266000263393],[1],['clear_anger'],414.61623270000564,414.6274430999765,0.0007357000140473247,414.6274430999765,414.6274430999765,414.6274430999765,414.6274430999765,414.6274430999765,414.6274430999765,414.6274430999765,416.46308660000795,[-0.2734375],[-0.20963541666666666],[1],[0],[0],[1.8451143999700435],[1],['clear_anger_main'],,,,02P,001,2024-12-03_19h54.51.094,SOLO_PROJECT_EXPERIMENT_NUTAN_KAIN_AU2220019,2024.1.5,None,2024-12-03 19h55.10.261727 +0530,
,,,,27,0,27,0,416.47739060001913,,,,,,,,,,,,,,,,,,,,,,,,,,,,,,,,,,,,,,,,,,,,,,,,,,,,,,,,,,,,,,,416.46559520001756,416.47739060001913,416.47739060001913,416.47739060001913,416.47739060001913,416.47739060001913,416.47739060001913,416.47739060001913,0.0013828999944962561,416.47739060001913,417.726839400013,[0.2916666666666667],[-0.20572916666666666],[1],[0],[0],[1.259610899956897],[1],['clear_anger'],417.7283507999964,417.74117160000606,0.0007343000033870339,417.74117160000606,417.74117160000606,417.74117160000606,417.74117160000606,417.74117160000606,417.74117160000606,417.74117160000606,419.9744892999879,[-0.3033854166666667],[0.30078125],[1],[0],[0],[2.2445604999666102],[1],['clear_anger_main'],,,,02P,001,2024-12-03_19h54.51.094,SOLO_PROJECT_EXPERIMENT_NUTAN_KAIN_AU2220019,2024.1.5,None,2024-12-03 19h55.10.261727 +0530,
,,,,28,0,28,0,419.98896879999666,,,,,,,,,,,,,,,,,,,,,,,,,,,,,,,,,,,,,,,,,,,,,,,,,,,,,,,,,,,,,,,419.9768782000174,419.98896879999666,419.98896879999666,419.98896879999666,419.98896879999666,419.98896879999666,419.98896879999666,419.98896879999666,0.0013924000086262822,419.98896879999666,421.15797260002,[-0.4088541666666667],[0.390625],[1],[0],[0],[1.1793386000208557],[1],['clear_anger'],421.1595510999905,421.17076489998726,0.0007692000363022089,421.17076489998726,421.17076489998726,421.17076489998726,421.17076489998726,421.17076489998726,421.17076489998726,421.17076489998726,422.5048708000104,[0.4153645833333333],[0.14192708333333334],[1],[0],[0],[1.3439016999909654],[1],['clear_anger_main'],,,,02P,001,2024-12-03_19h54.51.094,SOLO_PROJECT_EXPERIMENT_NUTAN_KAIN_AU2220019,2024.1.5,None,2024-12-03 19h55.10.261727 +0530,
,,,,29,0,29,0,422.5195839999942,,,,,,,,,,,,,,,,,,,,,,,,,,,,,,,,,,,,,,,,,,,,,,,,,,,,,,,,,,,,,,,422.5067337999935,422.5195839999942,422.5195839999942,422.5195839999942,422.5195839999942,422.5195839999942,422.5195839999942,422.5195839999942,0.0010428999667055905,422.5195839999942,424.153317600023,[-0.14192708333333334],[-0.4505208333333333],[1],[0],[0],[1.6453138000215404],[1],['clear_anger'],424.1548507999978,424.1680033999728,0.0005948999896645546,424.1680033999728,424.1680033999728,424.1680033999728,424.1680033999728,424.1680033999728,424.1680033999728,424.1680033999728,427.4010211999994,[-0.2421875],[-0.0703125],[1],[0],[0],[3.2448227000422776],[1],['clear_anger_main'],,,,02P,001,2024-12-03_19h54.51.094,SOLO_PROJECT_EXPERIMENT_NUTAN_KAIN_AU2220019,2024.1.5,None,2024-12-03 19h55.10.261727 +0530,
,,,,30,0,30,0,427.41477650002344,,,,,,,,,,,,,,,,,,,,,,,,,,,,,,,,,,,,,,,,,,,,,,,,,,,,,,,,,,,,,,,427.40327680000337,427.41477650002344,427.41477650002344,427.41477650002344,427.41477650002344,427.41477650002344,427.41477650002344,427.41477650002344,0.0012517999857664108,427.41477650002344,429.1815625000163,[-0.33203125],[-0.3046875],[1],[0],[0],[1.7768141000415199],[1],['clear_anger'],429.18293910002103,429.19639150000876,0.0007207999587990344,429.19639150000876,429.19639150000876,429.19639150000876,429.19639150000876,429.19639150000876,429.19639150000876,429.19639150000876,430.2149396999739,[0.057291666666666664],[0.140625],[1],[0],[0],[1.030596400029026],[1],['clear_anger_main'],,,,02P,001,2024-12-03_19h54.51.094,SOLO_PROJECT_EXPERIMENT_NUTAN_KAIN_AU2220019,2024.1.5,None,2024-12-03 19h55.10.261727 +0530,
,,,,31,0,31,0,430.2286959000048,,,,,,,,,,,,,,,,,,,,,,,,,,,,,,,,,,,,,,,,,,,,,,,,,,,,,,,,,,,,,,,430.21711550001055,430.2286959000048,430.2286959000048,430.2286959000048,430.2286959000048,430.2286959000048,430.2286959000048,430.2286959000048,0.0012865000171586871,430.2286959000048,431.36392089998117,[-0.09244791666666667],[0.0625],[1],[0],[0],[1.145125899987761],[],[],431.3656037999899,431.3778798999847,0.0007692000363022089,431.3778798999847,431.3778798999847,431.3778798999847,431.3778798999847,431.3778798999847,431.3778798999847,431.3778798999847,434.4432082999847,[-0.00390625],[-0.12630208333333334],[1],[0],[0],[3.0761788000236265],[1],['clear_anger_main'],,,,02P,001,2024-12-03_19h54.51.094,SOLO_PROJECT_EXPERIMENT_NUTAN_KAIN_AU2220019,2024.1.5,None,2024-12-03 19h55.10.261727 +0530,
,,,,32,0,32,0,434.4581590999733,,,,,,,,,,,,,,,,,,,,,,,,,,,,,,,,,,,,,,,,,,,,,,,,,,,,,,,,,,,,,,,434.4451201999909,434.4581590999733,434.4581590999733,434.4581590999733,434.4581590999733,434.4581590999733,434.4581590999733,434.4581590999733,0.001049000013154,434.4581590999733,435.4915948000271,[0.3177083333333333],[0.20052083333333334],[1],[0],[0],[1.0451507000252604],[1],['clear_anger'],435.49280649999855,435.5074732999783,0.000590000010561198,435.5074732999783,435.5074732999783,435.5074732999783,435.5074732999783,435.5074732999783,435.5074732999783,435.5074732999783,436.6249195000273,[-0.2916666666666667],[0.3346354166666667],[1],[0],[0],[1.1308171999990009],[1],['clear_anger_main'],,,,02P,001,2024-12-03_19h54.51.094,SOLO_PROJECT_EXPERIMENT_NUTAN_KAIN_AU2220019,2024.1.5,None,2024-12-03 19h55.10.261727 +0530,
,,,,33,0,33,0,436.6390803999966,,,,,,,,,,,,,,,,,,,,,,,,,,,,,,,,,,,,,,,,,,,,,,,,,,,,,,,,,,,,,,,436.6268232999719,436.6390803999966,436.6390803999966,436.6390803999966,436.6390803999966,436.6390803999966,436.6390803999966,436.6390803999966,0.0010644000140018761,436.6390803999966,438.4393276000046,[0.4947916666666667],[-0.1171875],[1],[0],[0],[1.8111233999952674],[1],['clear_anger'],438.4409486000077,438.45412670000223,0.0006415999960154295,438.45412670000223,438.45412670000223,438.45412670000223,438.45412670000223,438.45412670000223,438.45412670000223,438.45412670000223,441.47049699997297,[0.29296875],[0.0013020833333333333],[1],[0],[0],[3.028303099970799],[1],['clear_anger_main'],,,,02P,001,2024-12-03_19h54.51.094,SOLO_PROJECT_EXPERIMENT_NUTAN_KAIN_AU2220019,2024.1.5,None,2024-12-03 19h55.10.261727 +0530,
,,,,34,0,34,0,441.4847161999787,,,,,,,,,,,,,,,,,,,,,,,,,,,,,,,,,,,,,,,,,,,,,,,,,,,,,,,,,,,,,,,441.47199950000504,441.4847161999787,441.4847161999787,441.4847161999787,441.4847161999787,441.4847161999787,441.4847161999787,441.4847161999787,0.0007171999895945191,441.4847161999787,442.41892179998104,[0.24869791666666666],[0.029947916666666668],[1],[0],[0],[0.9457007999881171],[1],['clear_anger'],442.42044949997216,442.4337557000108,0.0006081999745219946,442.4337557000108,442.4337557000108,442.4337557000108,442.4337557000108,442.4337557000108,442.4337557000108,442.4337557000108,446.13180259999353,[0.4244791666666667],[0.1640625],[1],[0],[0],[3.7100723999901675],[1],['clear_anger_main'],,,,02P,001,2024-12-03_19h54.51.094,SOLO_PROJECT_EXPERIMENT_NUTAN_KAIN_AU2220019,2024.1.5,None,2024-12-03 19h55.10.261727 +0530,
,,,,35,0,35,0,446.14677709998796,,,,,,,,,,,,,,,,,,,,,,,,,,,,,,,,,,,,,,,,,,,,,,,,,,,,,,,,,,,,,,,446.13363180001033,446.14677709998796,446.14677709998796,446.14677709998796,446.14677709998796,446.14677709998796,446.14677709998796,446.14677709998796,0.0010133000323548913,446.14677709998796,447.6142112999805,[0.03125],[-0.3658854166666667],[1],[0],[0],[1.4793226999463513],[1],['clear_anger'],447.61560239997925,447.62849729997106,0.000665400002617389,447.62849729997106,447.62849729997106,447.62849729997106,447.62849729997106,447.62849729997106,447.62849729997106,447.62849729997106,450.39540480001597,[0.18619791666666666],[0.020833333333333332],[1],[0],[0],[2.7783968000439927],[1],['clear_anger_main'],,,,02P,001,2024-12-03_19h54.51.094,SOLO_PROJECT_EXPERIMENT_NUTAN_KAIN_AU2220019,2024.1.5,None,2024-12-03 19h55.10.261727 +0530,
,,,,36,0,36,0,450.40910230000736,,,,,,,,,,,,,,,,,,,,,,,,,,,,,,,,,,,,,,,,,,,,,,,,,,,,,,,,,,,,,,,450.39790520002134,450.40910230000736,450.40910230000736,450.40910230000736,450.40910230000736,450.40910230000736,450.40910230000736,450.40910230000736,0.0015229000127874315,450.40910230000736,454.2414963999763,[0.14973958333333334],[0.4309895833333333],[1],[0],[0],[3.841770800005179],[1],['clear_anger'],454.24306730000535,454.2550563000259,0.0006345000001601875,454.2550563000259,454.2550563000259,454.2550563000259,454.2550563000259,454.2550563000259,454.2550563000259,454.2550563000259,458.02221800002735,[-0.3072916666666667],[0.18229166666666666],[1],[0],[0],[3.777620700013358],[1],['clear_anger_main'],,,,02P,001,2024-12-03_19h54.51.094,SOLO_PROJECT_EXPERIMENT_NUTAN_KAIN_AU2220019,2024.1.5,None,2024-12-03 19h55.10.261727 +0530,
,,,,37,0,37,0,458.0369186999742,,,,,,,,,,,,,,,,,,,,,,,,,,,,,,,,,,,,,,,,,,,,,,,,,,,,,,,,,,,,,,,458.02472530002706,458.0369186999742,458.0369186999742,458.0369186999742,458.0369186999742,458.0369186999742,458.0369186999742,458.0369186999742,0.001458599988836795,458.0369186999742,459.15320669999346,[0.13671875],[0.078125],[1],[0],[0],[1.126690500008408],[1],['clear_anger'],459.15519969997695,459.16704209998716,0.0008740999619476497,459.16704209998716,459.16704209998716,459.16704209998716,459.16704209998716,459.16704209998716,459.16704209998716,459.16704209998716,460.2193965999759,[-0.024739583333333332],[0.3203125],[1],[0],[0],[1.0625324999564327],[1],['clear_anger_main'],,,,02P,001,2024-12-03_19h54.51.094,SOLO_PROJECT_EXPERIMENT_NUTAN_KAIN_AU2220019,2024.1.5,None,2024-12-03 19h55.10.261727 +0530,
,,,,38,0,38,0,460.23391409998294,,,,,,,,,,,,,,,,,,,,,,,,,,,,,,,,,,,,,,,,,,,,,,,,,,,,,,,,,,,,,,,460.2218307000003,460.23391409998294,460.23391409998294,460.23391409998294,460.23391409998294,460.23391409998294,460.23391409998294,460.23391409998294,0.001366899989079684,460.23391409998294,461.56743739999365,[-0.046875],[-0.2760416666666667],[1],[0],[0],[1.3439796000020579],[1],['clear_anger'],461.56905290001305,461.581811400014,0.0006350000039674342,461.581811400014,461.581811400014,461.581811400014,461.581811400014,461.581811400014,461.581811400014,461.581811400014,463.5648683999898,[0.3984375],[-0.4375],[1],[0],[0],[1.9943444000091404],[1],['clear_anger_main'],,,,02P,001,2024-12-03_19h54.51.094,SOLO_PROJECT_EXPERIMENT_NUTAN_KAIN_AU2220019,2024.1.5,None,2024-12-03 19h55.10.261727 +0530,
,,,,39,0,39,0,463.5794709000038,,,,,,,,,,,,,,,,,,,,,,,,,,,,,,,,,,,,,,,,,,,,,,,,,,,,,,,,,,,,,,,463.56719209998846,463.5794709000038,463.5794709000038,463.5794709000038,463.5794709000038,463.5794709000038,463.5794709000038,463.5794709000038,0.0012732000323012471,463.5794709000038,465.16461039998103,[0.21484375],[-0.3684895833333333],[1],[0],[0],[1.5957148000015877],[1],['clear_anger'],465.16664890001994,465.1780849000206,0.000908499991055578,465.1780849000206,465.1780849000206,465.1780849000206,465.1780849000206,465.1780849000206,465.1780849000206,465.1780849000206,466.29704670002684,[0.17057291666666666],[-0.3151041666666667],[1],[0],[0],[1.128654500003904],[1],['clear_anger_main'],,,,02P,001,2024-12-03_19h54.51.094,SOLO_PROJECT_EXPERIMENT_NUTAN_KAIN_AU2220019,2024.1.5,None,2024-12-03 19h55.10.261727 +0530,
,,,,40,0,40,0,466.309954700002,,,,,,,,,,,,,,,,,,,,,,,,,,,,,,,,,,,,,,,,,,,,,,,,,,,,,,,,,,,,,,,466.2991461000056,466.309954700002,466.309954700002,466.309954700002,466.309954700002,466.309954700002,466.309954700002,466.309954700002,0.0011471000034362078,466.309954700002,467.42848770000273,[0.1953125],[0.1875],[1],[0],[0],[1.1277864000294358],[1],['clear_anger'],467.43031690001953,467.44234319997486,0.000896100013051182,467.44234319997486,467.44234319997486,467.44234319997486,467.44234319997486,467.44234319997486,467.44234319997486,467.44234319997486,470.0266542999889,[0.4244791666666667],[-0.16536458333333334],[1],[0],[0],[2.5946773000177927],[1],['clear_anger_main'],,,,02P,001,2024-12-03_19h54.51.094,SOLO_PROJECT_EXPERIMENT_NUTAN_KAIN_AU2220019,2024.1.5,None,2024-12-03 19h55.10.261727 +0530,
,,,,41,0,41,0,470.04036430001725,,,,,,,,,,,,,,,,,,,,,,,,,,,,,,,,,,,,,,,,,,,,,,,,,,,,,,,,,,,,,,,470.0290094999946,470.04036430001725,470.04036430001725,470.04036430001725,470.04036430001725,470.04036430001725,470.04036430001725,470.04036430001725,0.0014208999928086996,470.04036430001725,471.2100387000246,[0.51953125],[-0.20963541666666666],[1],[0],[0],[1.179109700024128],[1],['clear_anger'],471.212410099979,471.23882680002134,0.0009319999953731894,471.23882680002134,471.23882680002134,471.23882680002134,471.23882680002134,471.23882680002134,471.23882680002134,471.23882680002134,474.3379844999872,[0.3515625],[-0.0234375],[1],[0],[0],[3.1240440999972634],[1],['clear_anger_main'],,,,02P,001,2024-12-03_19h54.51.094,SOLO_PROJECT_EXPERIMENT_NUTAN_KAIN_AU2220019,2024.1.5,None,2024-12-03 19h55.10.261727 +0530,
,,,,42,0,42,0,474.3524598000222,,,,,,,,,,,,,,,,,,,,,,,,,,,,,,,,,,,,,,,,,,,,,,,,,,,,,,,,,,,,,,,474.3398568999837,474.3524598000222,474.3524598000222,474.3524598000222,474.3524598000222,474.3524598000222,474.3524598000222,474.3524598000222,0.0010446999804116786,474.3524598000222,476.01952899998287,[-0.1796875],[-0.24869791666666666],[1],[0],[0],[1.678166900004726],[1],['clear_anger'],476.0212596000056,476.034353199997,0.0006212000153027475,476.034353199997,476.034353199997,476.034353199997,476.034353199997,476.034353199997,476.034353199997,476.034353199997,477.18514810001943,[0.06640625],[-0.059895833333333336],[1],[0],[0],[1.1625855999882333],[1],['clear_anger_main'],,,,02P,001,2024-12-03_19h54.51.094,SOLO_PROJECT_EXPERIMENT_NUTAN_KAIN_AU2220019,2024.1.5,None,2024-12-03 19h55.10.261727 +0530,
,,,,43,0,43,0,477.1992726000026,,,,,,,,,,,,,,,,,,,,,,,,,,,,,,,,,,,,,,,,,,,,,,,,,,,,,,,,,,,,,,,477.1868438000092,477.1992726000026,477.1992726000026,477.1992726000026,477.1992726000026,477.1992726000026,477.1992726000026,477.1992726000026,0.0009134000283665955,477.1992726000026,480.0315764999832,[-0.3776041666666667],[-0.16666666666666666],[1],[0],[0],[2.8435020999750122],[1],['clear_anger'],480.03287779999664,480.04689759999746,0.00045930000487715006,480.04689759999746,480.04689759999746,480.04689759999746,480.04689759999746,480.04689759999746,480.04689759999746,480.04689759999746,481.1971886000247,[0.3880208333333333],[0.3424479166666667],[1],[0],[0],[1.1632508999900892],[1],['clear_anger_main'],,,,02P,001,2024-12-03_19h54.51.094,SOLO_PROJECT_EXPERIMENT_NUTAN_KAIN_AU2220019,2024.1.5,None,2024-12-03 19h55.10.261727 +0530,
,,,,44,0,44,0,481.2123500999878,,,,,,,,,,,,,,,,,,,,,,,,,,,,,,,,,,,,,,,,,,,,,,,,,,,,,,,,,,,,,,,481.19876090000616,481.2123500999878,481.2123500999878,481.2123500999878,481.2123500999878,481.2123500999878,481.2123500999878,481.2123500999878,0.0008555999957025051,481.2123500999878,482.64516419998836,[-0.14583333333333334],[0.06640625],[1],[0],[0],[1.445233200036455],[1],['clear_anger'],482.6465035000001,482.66084099997533,0.0006004999740980566,482.66084099997533,482.66084099997533,482.66084099997533,482.66084099997533,482.66084099997533,482.66084099997533,482.66084099997533,485.72722369997064,[-0.05859375],[0.01953125],[1],[0],[0],[3.079376899986528],[],[],,,,02P,001,2024-12-03_19h54.51.094,SOLO_PROJECT_EXPERIMENT_NUTAN_KAIN_AU2220019,2024.1.5,None,2024-12-03 19h55.10.261727 +0530,
,,,,45,0,45,0,485.74080500000855,,,,,,,,,,,,,,,,,,,,,,,,,,,,,,,,,,,,,,,,,,,,,,,,,,,,,,,,,,,,,,,485.7294069000054,485.74080500000855,485.74080500000855,485.74080500000855,485.74080500000855,485.74080500000855,485.74080500000855,485.74080500000855,0.0013601999962702394,485.74080500000855,486.99323060002644,[-0.3619791666666667],[0.2109375],[1],[0],[0],[1.2622054999810643],[1],['clear_anger'],486.9950049999752,487.00771899998654,0.0008011999889276922,487.00771899998654,487.00771899998654,487.00771899998654,487.00771899998654,487.00771899998654,487.00771899998654,487.00771899998654,487.8921579999733,[0.265625],[0.34375],[1],[0],[0],[0.895690800040029],[1],['clear_anger_main'],,,,02P,001,2024-12-03_19h54.51.094,SOLO_PROJECT_EXPERIMENT_NUTAN_KAIN_AU2220019,2024.1.5,None,2024-12-03 19h55.10.261727 +0530,
,,,,46,0,46,0,487.9058724999777,,,,,,,,,,,,,,,,,,,,,,,,,,,,,,,,,,,,,,,,,,,,,,,,,,,,,,,,,,,,,,,487.8940313999774,487.9058724999777,487.9058724999777,487.9058724999777,487.9058724999777,487.9058724999777,487.9058724999777,487.9058724999777,0.0010265999590046704,487.9058724999777,491.2554302000208,[0.3111979166666667],[-0.2942708333333333],[1],[0],[0],[3.359926600009203],[1],['clear_anger'],491.2572145999875,491.268890700012,0.0008188000065274537,491.268890700012,491.268890700012,491.268890700012,491.268890700012,491.268890700012,491.268890700012,491.268890700012,492.67151890002424,[-0.08463541666666667],[-0.234375],[1],[0],[0],[1.412654499989003],[1],['clear_anger_main'],,,,02P,001,2024-12-03_19h54.51.094,SOLO_PROJECT_EXPERIMENT_NUTAN_KAIN_AU2220019,2024.1.5,None,2024-12-03 19h55.10.261727 +0530,
,,,,47,0,47,0,492.6847783999983,,,,,,,,,,,,,,,,,,,,,,,,,,,,,,,,,,,,,,,,,,,,,,,,,,,,,,,,,,,,,,,492.6738035000162,492.6847783999983,492.6847783999983,492.6847783999983,492.6847783999983,492.6847783999983,492.6847783999983,492.6847783999983,0.0013411999680101871,492.6847783999983,493.6850994999986,[-0.22786458333333334],[-0.13411458333333334],[1],[0],[0],[1.0097072999924421],[1],['clear_anger'],493.686319099972,493.7004369000206,0.0004634000360965729,493.7004369000206,493.7004369000206,493.7004369000206,493.7004369000206,493.7004369000206,493.7004369000206,493.7004369000206,497.6985099000158,[-0.3802083333333333],[0.11588541666666667],[1],[0],[0],[4.011055100010708],[1],['clear_anger_main'],,,,02P,001,2024-12-03_19h54.51.094,SOLO_PROJECT_EXPERIMENT_NUTAN_KAIN_AU2220019,2024.1.5,None,2024-12-03 19h55.10.261727 +0530,
,,,,48,0,48,0,497.7126350000035,,,,,,,,,,,,,,,,,,,,,,,,,,,,,,,,,,,,,,,,,,,,,,,,,,,,,,,,,,,,,,,497.7006516000256,497.7126350000035,497.7126350000035,497.7126350000035,497.7126350000035,497.7126350000035,497.7126350000035,497.7126350000035,0.0010936000035144389,497.7126350000035,499.74634459998924,[0.48828125],[-0.37890625],[1],[0],[0],[2.0443123999866657],[1],['clear_anger'],499.74793140002294,499.7607265000115,0.0007853999850340188,499.7607265000115,499.7607265000115,499.7607265000115,499.7607265000115,499.7607265000115,499.7607265000115,499.7607265000115,500.728874500026,[0.057291666666666664],[0.1640625],[1],[0],[0],[0.9795234000193886],[1],['clear_anger_main'],,,,02P,001,2024-12-03_19h54.51.094,SOLO_PROJECT_EXPERIMENT_NUTAN_KAIN_AU2220019,2024.1.5,None,2024-12-03 19h55.10.261727 +0530,
,,,,49,0,49,0,500.7435005999869,,,,,,,,,,,,,,,,,,,,,,,,,,,,,,,,,,,,,,,,,,,,,,,,,,,,,,,,,,,,,,,500.730951000005,500.7435005999869,500.7435005999869,500.7435005999869,500.7435005999869,500.7435005999869,500.7435005999869,500.7435005999869,0.0011397000052966177,500.7435005999869,501.8430196000263,[-0.3059895833333333],[-0.078125],[1],[0],[0],[1.1106062000035308],[1],['clear_anger'],501.8444824999897,501.85882429999765,0.0005928000318817794,501.85882429999765,501.85882429999765,501.85882429999765,501.85882429999765,501.85882429999765,501.85882429999765,501.85882429999765,503.1098886000109,[0.4192708333333333],[0.11067708333333333],[1],[0],[0],[1.2640887000015937],[1],['clear_anger_main'],,,,02P,001,2024-12-03_19h54.51.094,SOLO_PROJECT_EXPERIMENT_NUTAN_KAIN_AU2220019,2024.1.5,None,2024-12-03 19h55.10.261727 +0530,
,,,,,,,,,,,,,,,,,,,,,,,,,,,,,,,,,,,,,,,,,,,,,,,,,,,,,,,,,,,,,,,,,,,,,,,,,,,,,,,,,,,,,,,,,,,,,,,,,,,,,,,,,,,,,503.1117039999808,503.124716499995,506.12321160000283,02P,001,2024-12-03_19h54.51.094,SOLO_PROJECT_EXPERIMENT_NUTAN_KAIN_AU2220019,2024.1.5,None,2024-12-03 19h55.10.261727 +0530,
