loop_1.thisRepN,loop_1.thisTrialN,loop_1.thisN,loop_1.thisIndex,loop_2.thisRepN,loop_2.thisTrialN,loop_2.thisN,loop_2.thisIndex,thisRow.t,notes,guidelines.started,text.started,key_resp.started,guidelines.stopped,key_resp.keys,key_resp.rt,key_resp.duration,find_1.started,text_2.started,find_image_1.started,key_resp_2.started,find_1.stopped,key_resp_2.keys,key_resp_2.rt,key_resp_2.duration,baseline_sa.started,subtle_anger.started,n_1.started,n_2.started,n_3.started,n_4.started,n_5.started,n_6.started,mouse_resp.started,fix_1.started,baseline_sa.stopped,mouse_resp.x,mouse_resp.y,mouse_resp.leftButton,mouse_resp.midButton,mouse_resp.rightButton,mouse_resp.time,mouse_resp.corr,mouse_resp.clicked_name,main_sa.started,subtle_anger_main.started,mouse_resp_4.started,d_1.started,d_2.started,d_3.started,s_1.started,s_2.started,s_3.started,fix_2.started,main_sa.stopped,mouse_resp_4.x,mouse_resp_4.y,mouse_resp_4.leftButton,mouse_resp_4.midButton,mouse_resp_4.rightButton,mouse_resp_4.time,mouse_resp_4.corr,mouse_resp_4.clicked_name,find_3.started,text_4.started,key_resp_4.started,find_image__.started,find_3.stopped,key_resp_4.keys,key_resp_4.rt,key_resp_4.duration,baseline_ca.started,clear_anger.started,n_7.started,n_8.started,n_9.started,n_10.started,n_11.started,n_12.started,mouse_resp_3.started,fix_3.started,baseline_ca.stopped,mouse_resp_3.x,mouse_resp_3.y,mouse_resp_3.leftButton,mouse_resp_3.midButton,mouse_resp_3.rightButton,mouse_resp_3.time,mouse_resp_3.corr,mouse_resp_3.clicked_name,main_ca.started,clear_anger_main.started,mouse_resp_5.started,d_4.started,d_5.started,d_6.started,s_4.started,s_5.started,s_6.started,fix_4.started,main_ca.stopped,mouse_resp_5.x,mouse_resp_5.y,mouse_resp_5.leftButton,mouse_resp_5.midButton,mouse_resp_5.rightButton,mouse_resp_5.time,mouse_resp_5.corr,mouse_resp_5.clicked_name,thank_you.started,thanks.started,thank_you.stopped,participant,session,date,expName,psychopyVersion,frameRate,expStart,
,,,,,,,,,,0.009805599984247237,0.03041000000666827,0.03041000000666827,2.797696999972686,space,2.7596059999777935,None,,,,,,,,,,,,,,,,,,,,,,,,,,,,,,,,,,,,,,,,,,,,,,,,,,,,,,,,,,,,,,,,,,,,,,,,,,,,,,,,,,,,,,,,,,,,,,,,03S,001,2024-12-03_20h04.09.470,SOLO_PROJECT_EXPERIMENT_NUTAN_KAIN_AU2220019,2024.1.5,None,2024-12-03 20h04.34.216613 +0530,
,,,,,,,,,,,,,,,,,2.7977710999548435,2.8864881999907084,2.8864881999907084,2.8864881999907084,8.442130299983546,space,5.548782100027893,None,,,,,,,,,,,,,,,,,,,,,,,,,,,,,,,,,,,,,,,,,,,,,,,,,,,,,,,,,,,,,,,,,,,,,,,,,,,,,,,,,,,,,,,,03S,001,2024-12-03_20h04.09.470,SOLO_PROJECT_EXPERIMENT_NUTAN_KAIN_AU2220019,2024.1.5,None,2024-12-03 20h04.34.216613 +0530,
0,0,0,0,,,,,8.54385249997722,,,,,,,,,,,,,,,,,8.444361499976367,8.54385249997722,8.54385249997722,8.54385249997722,8.54385249997722,8.54385249997722,8.54385249997722,8.54385249997722,0.003096400003414601,8.54385249997722,9.741393100004643,[0.10546875],[0.2734375],[1],[0],[0],[1.2952761999913491],[1],['subtle_anger'],9.743353299971204,9.883460999990348,0.0005313000292517245,9.883460999990348,9.883460999990348,9.883460999990348,9.883460999990348,9.883460999990348,9.883460999990348,9.883460999990348,11.425399400002789,[0.04296875],[0.37890625],[1],[0],[0],[1.6803889999864623],[1],['subtle_anger_main'],,,,,,,,,,,,,,,,,,,,,,,,,,,,,,,,,,,,,,,,,,,,,,,,,,03S,001,2024-12-03_20h04.09.470,SOLO_PROJECT_EXPERIMENT_NUTAN_KAIN_AU2220019,2024.1.5,None,2024-12-03 20h04.34.216613 +0530,
1,0,1,0,,,,,11.449620899977162,,,,,,,,,,,,,,,,,11.431448699964676,11.449620899977162,11.449620899977162,11.449620899977162,11.449620899977162,11.449620899977162,11.449620899977162,11.449620899977162,0.002375299984123558,11.449620899977162,12.920885999978054,[0.2981770833333333],[-0.171875],[1],[0],[0],[1.486981599999126],[1],['subtle_anger'],12.92302429996198,12.935320599994157,0.0009484000038355589,12.935320599994157,12.935320599994157,12.935320599994157,12.935320599994157,12.935320599994157,12.935320599994157,12.935320599994157,14.352343300008215,[0.23958333333333334],[0.4153645833333333],[1],[0],[0],[1.4275829000398517],[1],['subtle_anger_main'],,,,,,,,,,,,,,,,,,,,,,,,,,,,,,,,,,,,,,,,,,,,,,,,,,03S,001,2024-12-03_20h04.09.470,SOLO_PROJECT_EXPERIMENT_NUTAN_KAIN_AU2220019,2024.1.5,None,2024-12-03 20h04.34.216613 +0530,
2,0,2,0,,,,,14.366783499950543,,,,,,,,,,,,,,,,,14.354630199959502,14.366783499950543,14.366783499950543,14.366783499950543,14.366783499950543,14.366783499950543,14.366783499950543,14.366783499950543,0.0011710000107996166,14.366783499950543,16.067001699993853,[0.061197916666666664],[-0.061197916666666664],[1],[0],[0],[1.7108716000220738],[1],['subtle_anger'],16.06867919996148,16.08338199998252,0.0008008999866433442,16.08338199998252,16.08338199998252,16.08338199998252,16.08338199998252,16.08338199998252,16.08338199998252,16.08338199998252,18.532554199977312,[-0.4453125],[0.16145833333333334],[1],[0],[0],[2.46252950001508],[1],['subtle_anger_main'],,,,,,,,,,,,,,,,,,,,,,,,,,,,,,,,,,,,,,,,,,,,,,,,,,03S,001,2024-12-03_20h04.09.470,SOLO_PROJECT_EXPERIMENT_NUTAN_KAIN_AU2220019,2024.1.5,None,2024-12-03 20h04.34.216613 +0530,
3,0,3,0,,,,,18.54607300000498,,,,,,,,,,,,,,,,,18.534249599964824,18.54607300000498,18.54607300000498,18.54607300000498,18.54607300000498,18.54607300000498,18.54607300000498,18.54607300000498,0.0009757000370882452,18.54607300000498,20.89660219999496,[0.4231770833333333],[-0.23046875],[1],[0],[0],[2.3607543000252917],[1],['subtle_anger'],20.89767340000253,20.91070879995823,0.0005114000523462892,20.91070879995823,20.91070879995823,20.91070879995823,20.91070879995823,20.91070879995823,20.91070879995823,20.91070879995823,22.843660199956503,[-0.20442708333333334],[0.2682291666666667],[1],[0],[0],[1.9448902999865822],[1],['subtle_anger_main'],,,,,,,,,,,,,,,,,,,,,,,,,,,,,,,,,,,,,,,,,,,,,,,,,,03S,001,2024-12-03_20h04.09.470,SOLO_PROJECT_EXPERIMENT_NUTAN_KAIN_AU2220019,2024.1.5,None,2024-12-03 20h04.34.216613 +0530,
4,0,4,0,,,,,22.858566599956248,,,,,,,,,,,,,,,,,22.84518589999061,22.858566599956248,22.858566599956248,22.858566599956248,22.858566599956248,22.858566599956248,22.858566599956248,22.858566599956248,0.0009144000359810889,22.858566599956248,24.908449199981987,[0.2421875],[0.08333333333333333],[1],[0],[0],[2.061917799990624],[1],['subtle_anger'],24.910161399981007,24.923864499956835,0.00085350003791973,24.923864499956835,24.923864499956835,24.923864499956835,24.923864499956835,24.923864499956835,24.923864499956835,24.923864499956835,28.008076299971435,[-0.3190104166666667],[0.3190104166666667],[1],[0],[0],[3.096111299993936],[1],['subtle_anger_main'],,,,,,,,,,,,,,,,,,,,,,,,,,,,,,,,,,,,,,,,,,,,,,,,,,03S,001,2024-12-03_20h04.09.470,SOLO_PROJECT_EXPERIMENT_NUTAN_KAIN_AU2220019,2024.1.5,None,2024-12-03 20h04.34.216613 +0530,
5,0,5,0,,,,,28.023668999958318,,,,,,,,,,,,,,,,,28.011142599978484,28.023668999958318,28.023668999958318,28.023668999958318,28.023668999958318,28.023668999958318,28.023668999958318,28.023668999958318,0.0016663999995216727,28.023668999958318,30.55331049999222,[0.13411458333333334],[-0.3880208333333333],[1],[0],[0],[2.5400263000046834],[1],['subtle_anger'],30.555248499964364,30.567543699988164,0.0008895999635569751,30.567543699988164,30.567543699988164,30.567543699988164,30.567543699988164,30.567543699988164,30.567543699988164,30.567543699988164,32.18547769996803,[0.3697916666666667],[0.3645833333333333],[1],[0],[0],[1.628587300016079],[1],['subtle_anger_main'],,,,,,,,,,,,,,,,,,,,,,,,,,,,,,,,,,,,,,,,,,,,,,,,,,03S,001,2024-12-03_20h04.09.470,SOLO_PROJECT_EXPERIMENT_NUTAN_KAIN_AU2220019,2024.1.5,None,2024-12-03 20h04.34.216613 +0530,
6,0,6,0,,,,,32.19960509997327,,,,,,,,,,,,,,,,,32.187466499977745,32.19960509997327,32.19960509997327,32.19960509997327,32.19960509997327,32.19960509997327,32.19960509997327,32.19960509997327,0.0010172000038437545,32.19960509997327,33.81708399998024,[-0.23958333333333334],[0.3971354166666667],[1],[0],[0],[1.6281510000117123],[1],['subtle_anger'],33.818859299994074,33.831484099966474,0.0008170999935828149,33.831484099966474,33.831484099966474,33.831484099966474,33.831484099966474,33.831484099966474,33.831484099966474,33.831484099966474,36.01505950000137,[0.4010416666666667],[-0.2890625],[1],[0],[0],[2.194645500043407],[1],['subtle_anger_main'],,,,,,,,,,,,,,,,,,,,,,,,,,,,,,,,,,,,,,,,,,,,,,,,,,03S,001,2024-12-03_20h04.09.470,SOLO_PROJECT_EXPERIMENT_NUTAN_KAIN_AU2220019,2024.1.5,None,2024-12-03 20h04.34.216613 +0530,
7,0,7,0,,,,,36.02933990000747,,,,,,,,,,,,,,,,,36.01704919995973,36.02933990000747,36.02933990000747,36.02933990000747,36.02933990000747,36.02933990000747,36.02933990000747,36.02933990000747,0.0009640000062063336,36.02933990000747,38.97895639995113,[0.4036458333333333],[-0.061197916666666664],[1],[0],[0],[2.9603997000376694],[1],['subtle_anger'],38.9816624999512,38.99290700000711,0.0011531999916769564,38.99290700000711,38.99290700000711,38.99290700000711,38.99290700000711,38.99290700000711,38.99290700000711,38.99290700000711,42.80760369997006,[0.032552083333333336],[-0.4153645833333333],[1],[0],[0],[3.823988599993754],[1],['subtle_anger_main'],,,,,,,,,,,,,,,,,,,,,,,,,,,,,,,,,,,,,,,,,,,,,,,,,,03S,001,2024-12-03_20h04.09.470,SOLO_PROJECT_EXPERIMENT_NUTAN_KAIN_AU2220019,2024.1.5,None,2024-12-03 20h04.34.216613 +0530,
8,0,8,0,,,,,42.822427799983416,,,,,,,,,,,,,,,,,42.80960849998519,42.822427799983416,42.822427799983416,42.822427799983416,42.822427799983416,42.822427799983416,42.822427799983416,42.822427799983416,0.0012268000282347202,42.822427799983416,44.889984599954914,[0.052083333333333336],[0.421875],[1],[0],[0],[2.0788154999609105],[1],['subtle_anger'],44.89151950000087,44.90456739999354,0.0007453999714925885,44.90456739999354,44.90456739999354,44.90456739999354,44.90456739999354,44.90456739999354,44.90456739999354,44.90456739999354,46.621791899960954,[0.13802083333333334],[-0.09635416666666667],[1],[0],[0],[1.7286147000268102],[1],['subtle_anger_main'],,,,,,,,,,,,,,,,,,,,,,,,,,,,,,,,,,,,,,,,,,,,,,,,,,03S,001,2024-12-03_20h04.09.470,SOLO_PROJECT_EXPERIMENT_NUTAN_KAIN_AU2220019,2024.1.5,None,2024-12-03 20h04.34.216613 +0530,
9,0,9,0,,,,,46.63588369998615,,,,,,,,,,,,,,,,,46.62445679999655,46.63588369998615,46.63588369998615,46.63588369998615,46.63588369998615,46.63588369998615,46.63588369998615,46.63588369998615,0.0018322999821975827,46.63588369998615,48.905301699996926,[-0.4140625],[-0.4322916666666667],[1],[0],[0],[2.27803489996586],[1],['subtle_anger'],48.90962970000692,48.92518639995251,0.0016757000121288002,48.92518639995251,48.92518639995251,48.92518639995251,48.92518639995251,48.92518639995251,48.92518639995251,48.92518639995251,50.78385119995801,[0.453125],[-0.125],[1],[0],[0],[1.871756499982439],[1],['subtle_anger_main'],,,,,,,,,,,,,,,,,,,,,,,,,,,,,,,,,,,,,,,,,,,,,,,,,,03S,001,2024-12-03_20h04.09.470,SOLO_PROJECT_EXPERIMENT_NUTAN_KAIN_AU2220019,2024.1.5,None,2024-12-03 20h04.34.216613 +0530,
10,0,10,0,,,,,50.79761399998097,,,,,,,,,,,,,,,,,50.786268799973186,50.79761399998097,50.79761399998097,50.79761399998097,50.79761399998097,50.79761399998097,50.79761399998097,50.79761399998097,0.0012006000033579767,50.79761399998097,52.350076199974865,[-0.09244791666666667],[-0.018229166666666668],[1],[0],[0],[1.5623953000176698],[1],['subtle_anger'],52.351571399951354,52.362792300002184,0.0005850999732501805,52.362792300002184,52.362792300002184,52.362792300002184,52.362792300002184,52.362792300002184,52.362792300002184,52.362792300002184,54.4634253999684,[0.5013020833333334],[-0.23177083333333334],[1],[0],[0],[2.1105151000083424],[1],['subtle_anger_main'],,,,,,,,,,,,,,,,,,,,,,,,,,,,,,,,,,,,,,,,,,,,,,,,,,03S,001,2024-12-03_20h04.09.470,SOLO_PROJECT_EXPERIMENT_NUTAN_KAIN_AU2220019,2024.1.5,None,2024-12-03 20h04.34.216613 +0530,
11,0,11,0,,,,,54.47758129995782,,,,,,,,,,,,,,,,,54.46623139997246,54.47758129995782,54.47758129995782,54.47758129995782,54.47758129995782,54.47758129995782,54.47758129995782,54.47758129995782,0.0013345999759621918,54.47758129995782,56.39438859996153,[0.22395833333333334],[-0.2552083333333333],[1],[0],[0],[1.9265961000346579],[1],['subtle_anger'],56.39610129996436,56.409041100007016,0.0008493999484926462,56.409041100007016,56.409041100007016,56.409041100007016,56.409041100007016,56.409041100007016,56.409041100007016,56.409041100007016,60.8399699999718,[0.19010416666666666],[0.3971354166666667],[1],[0],[0],[4.442488499975298],[1],['subtle_anger_main'],,,,,,,,,,,,,,,,,,,,,,,,,,,,,,,,,,,,,,,,,,,,,,,,,,03S,001,2024-12-03_20h04.09.470,SOLO_PROJECT_EXPERIMENT_NUTAN_KAIN_AU2220019,2024.1.5,None,2024-12-03 20h04.34.216613 +0530,
12,0,12,0,,,,,60.85498209996149,,,,,,,,,,,,,,,,,60.84144709998509,60.85498209996149,60.85498209996149,60.85498209996149,60.85498209996149,60.85498209996149,60.85498209996149,60.85498209996149,0.0007375999703072011,60.85498209996149,61.906251000007614,[0.009114583333333334],[0.07942708333333333],[1],[0],[0],[1.063645499991253],[1],['subtle_anger'],61.90804589999607,61.920387299964204,0.0008242000476457179,61.920387299964204,61.920387299964204,61.920387299964204,61.920387299964204,61.920387299964204,61.920387299964204,61.920387299964204,66.1687756999745,[-0.13932291666666666],[0.4296875],[1],[0],[0],[4.259216799982823],[1],['subtle_anger_main'],,,,,,,,,,,,,,,,,,,,,,,,,,,,,,,,,,,,,,,,,,,,,,,,,,03S,001,2024-12-03_20h04.09.470,SOLO_PROJECT_EXPERIMENT_NUTAN_KAIN_AU2220019,2024.1.5,None,2024-12-03 20h04.34.216613 +0530,
13,0,13,0,,,,,66.1829189999844,,,,,,,,,,,,,,,,,66.170829199953,66.1829189999844,66.1829189999844,66.1829189999844,66.1829189999844,66.1829189999844,66.1829189999844,66.1829189999844,0.00118980003753677,66.1829189999844,67.33359130000463,[-0.3059895833333333],[0.359375],[1],[0],[0],[1.1614267000113614],[1],['subtle_anger'],67.33466259995475,67.34827469999436,0.0005092000355944037,67.34827469999436,67.34827469999436,67.34827469999436,67.34827469999436,67.34827469999436,67.34827469999436,67.34827469999436,68.64948259998346,[0.4348958333333333],[-0.09244791666666667],[1],[0],[0],[1.3137483000173233],[1],['subtle_anger_main'],,,,,,,,,,,,,,,,,,,,,,,,,,,,,,,,,,,,,,,,,,,,,,,,,,03S,001,2024-12-03_20h04.09.470,SOLO_PROJECT_EXPERIMENT_NUTAN_KAIN_AU2220019,2024.1.5,None,2024-12-03 20h04.34.216613 +0530,
14,0,14,0,,,,,68.66417800000636,,,,,,,,,,,,,,,,,68.65155179996509,68.66417800000636,68.66417800000636,68.66417800000636,68.66417800000636,68.66417800000636,68.66417800000636,68.66417800000636,0.001166399975772947,68.66417800000636,70.41592329996638,[0.4127604166666667],[-0.2513020833333333],[1],[0],[0],[1.762751100002788],[1],['subtle_anger'],70.41780579998158,70.42894889996387,0.0008476999937556684,70.42894889996387,70.42894889996387,70.42894889996387,70.42894889996387,70.42894889996387,70.42894889996387,70.42894889996387,71.92941709997831,[-0.01953125],[-0.32421875],[1],[0],[0],[1.5101182999787852],[1],['subtle_anger_main'],,,,,,,,,,,,,,,,,,,,,,,,,,,,,,,,,,,,,,,,,,,,,,,,,,03S,001,2024-12-03_20h04.09.470,SOLO_PROJECT_EXPERIMENT_NUTAN_KAIN_AU2220019,2024.1.5,None,2024-12-03 20h04.34.216613 +0530,
15,0,15,0,,,,,71.94400469999528,,,,,,,,,,,,,,,,,71.93158699997002,71.94400469999528,71.94400469999528,71.94400469999528,71.94400469999528,71.94400469999528,71.94400469999528,71.94400469999528,0.0011206999770365655,71.94400469999528,74.95957209996413,[-0.3489583333333333],[-0.32421875],[1],[0],[0],[3.0264167000423186],[1],['subtle_anger'],74.96150119998492,74.97545339999488,0.0008533999789506197,74.97545339999488,74.97545339999488,74.97545339999488,74.97545339999488,74.97545339999488,74.97545339999488,74.97545339999488,76.49224099999992,[0.3294270833333333],[0.044270833333333336],[1],[0],[0],[1.5290808000136167],[1],['subtle_anger_main'],,,,,,,,,,,,,,,,,,,,,,,,,,,,,,,,,,,,,,,,,,,,,,,,,,03S,001,2024-12-03_20h04.09.470,SOLO_PROJECT_EXPERIMENT_NUTAN_KAIN_AU2220019,2024.1.5,None,2024-12-03 20h04.34.216613 +0530,
16,0,16,0,,,,,76.5059864000068,,,,,,,,,,,,,,,,,76.49468939995859,76.5059864000068,76.5059864000068,76.5059864000068,76.5059864000068,76.5059864000068,76.5059864000068,76.5059864000068,0.0010454000439494848,76.5059864000068,77.74173079995671,[0.01953125],[0.13671875],[1],[0],[0],[1.2453754000016488],[1],['subtle_anger'],77.7443282000022,77.77111039997544,0.0011911000474356115,77.77111039997544,77.77111039997544,77.77111039997544,77.77111039997544,77.77111039997544,77.77111039997544,77.77111039997544,79.67268630000763,[-0.4205729166666667],[-0.09895833333333333],[1],[0],[0],[1.9264259000192396],[1],['subtle_anger_main'],,,,,,,,,,,,,,,,,,,,,,,,,,,,,,,,,,,,,,,,,,,,,,,,,,03S,001,2024-12-03_20h04.09.470,SOLO_PROJECT_EXPERIMENT_NUTAN_KAIN_AU2220019,2024.1.5,None,2024-12-03 20h04.34.216613 +0530,
17,0,17,0,,,,,79.68600419996073,,,,,,,,,,,,,,,,,79.67465020000236,79.68600419996073,79.68600419996073,79.68600419996073,79.68600419996073,79.68600419996073,79.68600419996073,79.68600419996073,0.001116100000217557,79.68600419996073,81.16929049999453,[-0.1953125],[0.13411458333333334],[1],[0],[0],[1.4932761000236496],[1],['subtle_anger'],81.17050809995271,81.18495029996848,0.0005111000500619411,81.18495029996848,81.18495029996848,81.18495029996848,81.18495029996848,81.18495029996848,81.18495029996848,81.18495029996848,82.7186068999581,[-0.032552083333333336],[-0.3841145833333333],[1],[0],[0],[1.5468496999819763],[1],['subtle_anger_main'],,,,,,,,,,,,,,,,,,,,,,,,,,,,,,,,,,,,,,,,,,,,,,,,,,03S,001,2024-12-03_20h04.09.470,SOLO_PROJECT_EXPERIMENT_NUTAN_KAIN_AU2220019,2024.1.5,None,2024-12-03 20h04.34.216613 +0530,
18,0,18,0,,,,,82.73350109998137,,,,,,,,,,,,,,,,,82.7209678000072,82.73350109998137,82.73350109998137,82.73350109998137,82.73350109998137,82.73350109998137,82.73350109998137,82.73350109998137,0.0010821999749168754,82.73350109998137,84.86869649996515,[0.14583333333333334],[0.11458333333333333],[1],[0],[0],[2.1461383999558166],[1],['subtle_anger'],84.8705793999834,84.88201030000346,0.000791100028436631,84.88201030000346,84.88201030000346,84.88201030000346,84.88201030000346,84.88201030000346,84.88201030000346,84.88201030000346,87.41480189998401,[0.20442708333333334],[-0.4427083333333333],[1],[0],[0],[2.5427323000039905],[1],['subtle_anger_main'],,,,,,,,,,,,,,,,,,,,,,,,,,,,,,,,,,,,,,,,,,,,,,,,,,03S,001,2024-12-03_20h04.09.470,SOLO_PROJECT_EXPERIMENT_NUTAN_KAIN_AU2220019,2024.1.5,None,2024-12-03 20h04.34.216613 +0530,
19,0,19,0,,,,,87.42884750000667,,,,,,,,,,,,,,,,,87.41665049997391,87.42884750000667,87.42884750000667,87.42884750000667,87.42884750000667,87.42884750000667,87.42884750000667,87.42884750000667,0.0010310999932698905,87.42884750000667,90.5442082999507,[0.3541666666666667],[-0.16666666666666666],[1],[0],[0],[3.1259711000020616],[1],['subtle_anger'],90.5462599999737,90.55917399999453,0.0007876000017859042,90.55917399999453,90.55917399999453,90.55917399999453,90.55917399999453,90.55917399999453,90.55917399999453,90.55917399999453,92.80870049999794,[-0.4036458333333333],[-0.3177083333333333],[1],[0],[0],[2.2610640000202693],[1],['subtle_anger_main'],,,,,,,,,,,,,,,,,,,,,,,,,,,,,,,,,,,,,,,,,,,,,,,,,,03S,001,2024-12-03_20h04.09.470,SOLO_PROJECT_EXPERIMENT_NUTAN_KAIN_AU2220019,2024.1.5,None,2024-12-03 20h04.34.216613 +0530,
20,0,20,0,,,,,92.82349300000351,,,,,,,,,,,,,,,,,92.81065249996027,92.82349300000351,92.82349300000351,92.82349300000351,92.82349300000351,92.82349300000351,92.82349300000351,92.82349300000351,0.001034800021443516,92.82349300000351,94.50714939995669,[0.24479166666666666],[-0.3177083333333333],[1],[0],[0],[1.6951437999960035],[1],['subtle_anger'],94.50846310000634,94.52174949995242,0.0005487000453285873,94.52174949995242,94.52174949995242,94.52174949995242,94.52174949995242,94.52174949995242,94.52174949995242,94.52174949995242,96.15874369995436,[-0.2526041666666667],[-0.3177083333333333],[1],[0],[0],[1.648770899977535],[1],['subtle_anger_main'],,,,,,,,,,,,,,,,,,,,,,,,,,,,,,,,,,,,,,,,,,,,,,,,,,03S,001,2024-12-03_20h04.09.470,SOLO_PROJECT_EXPERIMENT_NUTAN_KAIN_AU2220019,2024.1.5,None,2024-12-03 20h04.34.216613 +0530,
21,0,21,0,,,,,96.17337779997615,,,,,,,,,,,,,,,,,96.1614767999854,96.17337779997615,96.17337779997615,96.17337779997615,96.17337779997615,96.17337779997615,96.17337779997615,96.17337779997615,0.0013693999499082565,96.17337779997615,98.22003299999051,[-0.1796875],[0.3932291666666667],[1],[0],[0],[2.056623700016644],[1],['subtle_anger'],98.2220973999938,98.23583769996185,0.0008103000000119209,98.23583769996185,98.23583769996185,98.23583769996185,98.23583769996185,98.23583769996185,98.23583769996185,98.23583769996185,100.38893590000225,[-0.11588541666666667],[-0.2994791666666667],[1],[0],[0],[2.1649409999954514],[1],['subtle_anger_main'],,,,,,,,,,,,,,,,,,,,,,,,,,,,,,,,,,,,,,,,,,,,,,,,,,03S,001,2024-12-03_20h04.09.470,SOLO_PROJECT_EXPERIMENT_NUTAN_KAIN_AU2220019,2024.1.5,None,2024-12-03 20h04.34.216613 +0530,
22,0,22,0,,,,,100.40662679995876,,,,,,,,,,,,,,,,,100.39192809996894,100.40662679995876,100.40662679995876,100.40662679995876,100.40662679995876,100.40662679995876,100.40662679995876,100.40662679995876,0.0017065000138245523,100.40662679995876,101.89942989998963,[-0.015625],[-0.12890625],[1],[0],[0],[1.5056244999868795],[1],['subtle_anger'],101.9012201000005,101.9143131999881,0.0008409000001847744,101.9143131999881,101.9143131999881,101.9143131999881,101.9143131999881,101.9143131999881,101.9143131999881,101.9143131999881,103.39986919995863,[0.0546875],[-0.3541666666666667],[1],[0],[0],[1.4968201000010595],[1],['subtle_anger_main'],,,,,,,,,,,,,,,,,,,,,,,,,,,,,,,,,,,,,,,,,,,,,,,,,,03S,001,2024-12-03_20h04.09.470,SOLO_PROJECT_EXPERIMENT_NUTAN_KAIN_AU2220019,2024.1.5,None,2024-12-03 20h04.34.216613 +0530,
23,0,23,0,,,,,103.41761539998697,,,,,,,,,,,,,,,,,103.40329409996048,103.41761539998697,103.41761539998697,103.41761539998697,103.41761539998697,103.41761539998697,103.41761539998697,103.41761539998697,0.001854300033301115,103.41761539998697,105.39726149995113,[-0.3125],[-0.2838541666666667],[1],[0],[0],[1.9918870000401512],[1],['subtle_anger'],105.39906349999364,105.41072280000662,0.0008229999803006649,105.41072280000662,105.41072280000662,105.41072280000662,105.41072280000662,105.41072280000662,105.41072280000662,105.41072280000662,106.92949730000691,[0.048177083333333336],[-0.21484375],[1],[0],[0],[1.5288584000081755],[1],['subtle_anger_main'],,,,,,,,,,,,,,,,,,,,,,,,,,,,,,,,,,,,,,,,,,,,,,,,,,03S,001,2024-12-03_20h04.09.470,SOLO_PROJECT_EXPERIMENT_NUTAN_KAIN_AU2220019,2024.1.5,None,2024-12-03 20h04.34.216613 +0530,
24,0,24,0,,,,,106.94271709996974,,,,,,,,,,,,,,,,,106.93165339995176,106.94271709996974,106.94271709996974,106.94271709996974,106.94271709996974,106.94271709996974,106.94271709996974,106.94271709996974,0.0012470000074245036,106.94271709996974,109.55892139999196,[-0.4817708333333333],[0.31640625],[1],[0],[0],[2.625670599984005],[1],['subtle_anger'],109.56043359998148,109.57384199998342,0.0006893000099807978,109.57384199998342,109.57384199998342,109.57384199998342,109.57384199998342,109.57384199998342,109.57384199998342,109.57384199998342,112.90775589999976,[0.3046875],[-0.25390625],[1],[0],[0],[3.3457591000478715],[1],['subtle_anger_main'],,,,,,,,,,,,,,,,,,,,,,,,,,,,,,,,,,,,,,,,,,,,,,,,,,03S,001,2024-12-03_20h04.09.470,SOLO_PROJECT_EXPERIMENT_NUTAN_KAIN_AU2220019,2024.1.5,None,2024-12-03 20h04.34.216613 +0530,
25,0,25,0,,,,,112.92154740000842,,,,,,,,,,,,,,,,,112.91027819999726,112.92154740000842,112.92154740000842,112.92154740000842,112.92154740000842,112.92154740000842,112.92154740000842,112.92154740000842,0.0014497999800369143,112.92154740000842,114.98702209995827,[-0.18359375],[-0.17838541666666666],[1],[0],[0],[2.074856799968984],[1],['subtle_anger'],114.98915259999922,115.00216350000119,0.0007536000339314342,115.00216350000119,115.00216350000119,115.00216350000119,115.00216350000119,115.00216350000119,115.00216350000119,115.00216350000119,117.5030746999546,[0.19270833333333334],[-0.27734375],[1],[0],[0],[2.5123363999882713],[1],['subtle_anger_main'],,,,,,,,,,,,,,,,,,,,,,,,,,,,,,,,,,,,,,,,,,,,,,,,,,03S,001,2024-12-03_20h04.09.470,SOLO_PROJECT_EXPERIMENT_NUTAN_KAIN_AU2220019,2024.1.5,None,2024-12-03 20h04.34.216613 +0530,
26,0,26,0,,,,,117.51635059999535,,,,,,,,,,,,,,,,,117.50553089997265,117.51635059999535,117.51635059999535,117.51635059999535,117.51635059999535,117.51635059999535,117.51635059999535,117.51635059999535,0.0013479000190272927,117.51635059999535,118.71681849996094,[0.17578125],[-0.12369791666666667],[1],[0],[0],[1.2095949000213295],[1],['subtle_anger'],118.7185944999801,118.73123360000318,0.0008488000021316111,118.73123360000318,118.73123360000318,118.73123360000318,118.73123360000318,118.73123360000318,118.73123360000318,118.73123360000318,120.06550959998276,[0.046875],[0.203125],[1],[0],[0],[1.345501899952069],[1],['subtle_anger_main'],,,,,,,,,,,,,,,,,,,,,,,,,,,,,,,,,,,,,,,,,,,,,,,,,,03S,001,2024-12-03_20h04.09.470,SOLO_PROJECT_EXPERIMENT_NUTAN_KAIN_AU2220019,2024.1.5,None,2024-12-03 20h04.34.216613 +0530,
27,0,27,0,,,,,120.08029069995973,,,,,,,,,,,,,,,,,120.06726089998847,120.08029069995973,120.08029069995973,120.08029069995973,120.08029069995973,120.08029069995973,120.08029069995973,120.08029069995973,0.0012058000429533422,120.08029069995973,122.0794664999703,[0.11848958333333333],[-0.3997395833333333],[1],[0],[0],[2.0106536999810487],[1],['subtle_anger'],122.08123779995367,122.09435369999846,0.0007143999682739377,122.09435369999846,122.09435369999846,122.09435369999846,122.09435369999846,122.09435369999846,122.09435369999846,122.09435369999846,125.1432445999817,[-0.3919270833333333],[-0.34765625],[1],[0],[0],[3.0606837999657728],[1],['subtle_anger_main'],,,,,,,,,,,,,,,,,,,,,,,,,,,,,,,,,,,,,,,,,,,,,,,,,,03S,001,2024-12-03_20h04.09.470,SOLO_PROJECT_EXPERIMENT_NUTAN_KAIN_AU2220019,2024.1.5,None,2024-12-03 20h04.34.216613 +0530,
28,0,28,0,,,,,125.15846889995737,,,,,,,,,,,,,,,,,125.14531419996638,125.15846889995737,125.15846889995737,125.15846889995737,125.15846889995737,125.15846889995737,125.15846889995737,125.15846889995737,0.0011633000103756785,125.15846889995737,126.92505729995901,[0.4973958333333333],[-0.19661458333333334],[1],[0],[0],[1.778175999992527],[1],['subtle_anger'],126.92663299996639,126.93998029996874,0.0007604000275023282,126.93998029996874,126.93998029996874,126.93998029996874,126.93998029996874,126.93998029996874,126.93998029996874,126.93998029996874,128.8742157999659,[0.3203125],[-0.21744791666666666],[1],[0],[0],[1.9461070999968797],[1],['subtle_anger_main'],,,,,,,,,,,,,,,,,,,,,,,,,,,,,,,,,,,,,,,,,,,,,,,,,,03S,001,2024-12-03_20h04.09.470,SOLO_PROJECT_EXPERIMENT_NUTAN_KAIN_AU2220019,2024.1.5,None,2024-12-03 20h04.34.216613 +0530,
29,0,29,0,,,,,128.88803919998463,,,,,,,,,,,,,,,,,128.87625289999414,128.88803919998463,128.88803919998463,128.88803919998463,128.88803919998463,128.88803919998463,128.88803919998463,128.88803919998463,0.001110800018068403,128.88803919998463,130.0718341000029,[0.0],[0.12239583333333333],[1],[0],[0],[1.1941260000457987],[1],['subtle_anger'],130.0732753999764,130.08682039997075,0.0005730999982915819,130.08682039997075,130.08682039997075,130.08682039997075,130.08682039997075,130.08682039997075,130.08682039997075,130.08682039997075,131.23848429997452,[-0.049479166666666664],[0.21354166666666666],[1],[0],[0],[1.1639366000308655],[1],['subtle_anger_main'],,,,,,,,,,,,,,,,,,,,,,,,,,,,,,,,,,,,,,,,,,,,,,,,,,03S,001,2024-12-03_20h04.09.470,SOLO_PROJECT_EXPERIMENT_NUTAN_KAIN_AU2220019,2024.1.5,None,2024-12-03 20h04.34.216613 +0530,
30,0,30,0,,,,,131.25227709999308,,,,,,,,,,,,,,,,,131.24081099999603,131.25227709999308,131.25227709999308,131.25227709999308,131.25227709999308,131.25227709999308,131.25227709999308,131.25227709999308,0.0013010000111535192,131.25227709999308,132.27154809999047,[-0.07161458333333333],[0.38671875],[1],[0],[0],[1.0289323999895714],[1],['subtle_anger'],132.27334139996674,132.28479499998502,0.000737300026230514,132.28479499998502,132.28479499998502,132.28479499998502,132.28479499998502,132.28479499998502,132.28479499998502,132.28479499998502,134.66807469999185,[0.2981770833333333],[-0.17447916666666666],[1],[0],[0],[2.3931674000341445],[1],['subtle_anger_main'],,,,,,,,,,,,,,,,,,,,,,,,,,,,,,,,,,,,,,,,,,,,,,,,,,03S,001,2024-12-03_20h04.09.470,SOLO_PROJECT_EXPERIMENT_NUTAN_KAIN_AU2220019,2024.1.5,None,2024-12-03 20h04.34.216613 +0530,
31,0,31,0,,,,,134.68853529996704,,,,,,,,,,,,,,,,,134.67067079996923,134.68853529996704,134.68853529996704,134.68853529996704,134.68853529996704,134.68853529996704,134.68853529996704,134.68853529996704,0.0020523000275716186,134.68853529996704,140.21263929997804,[-0.06901041666666667],[-0.234375],[1],[0],[0],[5.539655299973674],[1],['subtle_anger'],140.21418680000352,140.22687469999073,0.0008407999994233251,140.22687469999073,140.22687469999073,140.22687469999073,140.22687469999073,140.22687469999073,140.22687469999073,140.22687469999073,141.64365479996195,[0.15755208333333334],[0.0],[1],[0],[0],[1.428147100028582],[1],['subtle_anger_main'],,,,,,,,,,,,,,,,,,,,,,,,,,,,,,,,,,,,,,,,,,,,,,,,,,03S,001,2024-12-03_20h04.09.470,SOLO_PROJECT_EXPERIMENT_NUTAN_KAIN_AU2220019,2024.1.5,None,2024-12-03 20h04.34.216613 +0530,
32,0,32,0,,,,,141.65884509996977,,,,,,,,,,,,,,,,,141.64510490000248,141.65884509996977,141.65884509996977,141.65884509996977,141.65884509996977,141.65884509996977,141.65884509996977,141.65884509996977,0.0007829999667592347,141.65884509996977,143.77706619998207,[-0.4869791666666667],[0.4296875],[1],[0],[0],[2.130672999948729],[1],['subtle_anger'],143.7789995999774,143.79034049995244,0.0009352000197395682,143.79034049995244,143.79034049995244,143.79034049995244,143.79034049995244,143.79034049995244,143.79034049995244,143.79034049995244,145.77467119996436,[-0.2734375],[-0.20052083333333334],[1],[0],[0],[1.9939292999915779],[1],['subtle_anger_main'],,,,,,,,,,,,,,,,,,,,,,,,,,,,,,,,,,,,,,,,,,,,,,,,,,03S,001,2024-12-03_20h04.09.470,SOLO_PROJECT_EXPERIMENT_NUTAN_KAIN_AU2220019,2024.1.5,None,2024-12-03 20h04.34.216613 +0530,
33,0,33,0,,,,,145.78825539996615,,,,,,,,,,,,,,,,,145.7768625000026,145.78825539996615,145.78825539996615,145.78825539996615,145.78825539996615,145.78825539996615,145.78825539996615,145.78825539996615,0.001201900013256818,145.78825539996615,148.5546856999863,[0.22265625],[0.2513020833333333],[1],[0],[0],[2.776361500029452],[1],['subtle_anger'],148.5559003999806,148.5692532999674,0.0005096999811939895,148.5692532999674,148.5692532999674,148.5692532999674,148.5692532999674,148.5692532999674,148.5692532999674,148.5692532999674,150.43650630000047,[0.125],[-0.25390625],[1],[0],[0],[1.8794720000005327],[1],['subtle_anger_main'],,,,,,,,,,,,,,,,,,,,,,,,,,,,,,,,,,,,,,,,,,,,,,,,,,03S,001,2024-12-03_20h04.09.470,SOLO_PROJECT_EXPERIMENT_NUTAN_KAIN_AU2220019,2024.1.5,None,2024-12-03 20h04.34.216613 +0530,
34,0,34,0,,,,,150.45033039996633,,,,,,,,,,,,,,,,,150.43826019996777,150.45033039996633,150.45033039996633,150.45033039996633,150.45033039996633,150.45033039996633,150.45033039996633,150.45033039996633,0.0009632999426685274,150.45033039996633,151.71850789996097,[0.19661458333333334],[0.4244791666666667],[1],[0],[0],[1.2789041999494657],[1],['subtle_anger'],151.72031780000543,151.73216610000236,0.0008384999819099903,151.73216610000236,151.73216610000236,151.73216610000236,151.73216610000236,151.73216610000236,151.73216610000236,151.73216610000236,153.83201819995884,[-0.4479166666666667],[-0.3033854166666667],[1],[0],[0],[2.1102197999716736],[1],['subtle_anger_main'],,,,,,,,,,,,,,,,,,,,,,,,,,,,,,,,,,,,,,,,,,,,,,,,,,03S,001,2024-12-03_20h04.09.470,SOLO_PROJECT_EXPERIMENT_NUTAN_KAIN_AU2220019,2024.1.5,None,2024-12-03 20h04.34.216613 +0530,
35,0,35,0,,,,,153.84646589995828,,,,,,,,,,,,,,,,,153.8341189000057,153.84646589995828,153.84646589995828,153.84646589995828,153.84646589995828,153.84646589995828,153.84646589995828,153.84646589995828,0.0010790000087581575,153.84646589995828,155.54821239999728,[0.2552083333333333],[-0.2552083333333333],[1],[0],[0],[1.7126789999892935],[1],['subtle_anger'],155.54983719997108,155.5616505999933,0.0007771000382490456,155.5616505999933,155.5616505999933,155.5616505999933,155.5616505999933,155.5616505999933,155.5616505999933,155.5616505999933,156.91387849999592,[-0.15625],[0.09114583333333333],[1],[0],[0],[1.3625093000009656],[1],['subtle_anger_main'],,,,,,,,,,,,,,,,,,,,,,,,,,,,,,,,,,,,,,,,,,,,,,,,,,03S,001,2024-12-03_20h04.09.470,SOLO_PROJECT_EXPERIMENT_NUTAN_KAIN_AU2220019,2024.1.5,None,2024-12-03 20h04.34.216613 +0530,
36,0,36,0,,,,,156.92730250000022,,,,,,,,,,,,,,,,,156.91603179997765,156.92730250000022,156.92730250000022,156.92730250000022,156.92730250000022,156.92730250000022,156.92730250000022,156.92730250000022,0.0011969000333920121,156.92730250000022,159.40962269995362,[0.3177083333333333],[-0.13541666666666666],[1],[0],[0],[2.4921096000471152],[1],['subtle_anger'],159.4111499999999,159.42522949998965,0.0006292000180110335,159.42522949998965,159.42522949998965,159.42522949998965,159.42522949998965,159.42522949998965,159.42522949998965,159.42522949998965,162.10802329995204,[0.3138020833333333],[0.12369791666666667],[1],[0],[0],[2.6954902000143193],[1],['subtle_anger_main'],,,,,,,,,,,,,,,,,,,,,,,,,,,,,,,,,,,,,,,,,,,,,,,,,,03S,001,2024-12-03_20h04.09.470,SOLO_PROJECT_EXPERIMENT_NUTAN_KAIN_AU2220019,2024.1.5,None,2024-12-03 20h04.34.216613 +0530,
37,0,37,0,,,,,162.12176009995164,,,,,,,,,,,,,,,,,162.11005169997225,162.12176009995164,162.12176009995164,162.12176009995164,162.12176009995164,162.12176009995164,162.12176009995164,162.12176009995164,0.0010734000243246555,162.12176009995164,163.62483819999034,[-0.2760416666666667],[-0.13802083333333334],[1],[0],[0],[1.5131360000232235],[1],['subtle_anger'],163.62687129998812,163.6405840999796,0.0009367000311613083,163.6405840999796,163.6405840999796,163.6405840999796,163.6405840999796,163.6405840999796,163.6405840999796,163.6405840999796,166.41999829997076,[-0.3411458333333333],[0.41015625],[1],[0],[0],[2.791405899974052],[1],['subtle_anger_main'],,,,,,,,,,,,,,,,,,,,,,,,,,,,,,,,,,,,,,,,,,,,,,,,,,03S,001,2024-12-03_20h04.09.470,SOLO_PROJECT_EXPERIMENT_NUTAN_KAIN_AU2220019,2024.1.5,None,2024-12-03 20h04.34.216613 +0530,
38,0,38,0,,,,,166.43469659995753,,,,,,,,,,,,,,,,,166.4218816999928,166.43469659995753,166.43469659995753,166.43469659995753,166.43469659995753,166.43469659995753,166.43469659995753,166.43469659995753,0.0010209999745711684,166.43469659995753,168.65165209997213,[-0.3919270833333333],[-0.06640625],[1],[0],[0],[2.2282792999758385],[1],['subtle_anger'],168.65348389995052,168.6656631999649,0.0007018999895080924,168.6656631999649,168.6656631999649,168.6656631999649,168.6656631999649,168.6656631999649,168.6656631999649,168.6656631999649,170.03377069998533,[-0.23828125],[0.20833333333333334],[1],[0],[0],[1.378953300009016],[1],['subtle_anger_main'],,,,,,,,,,,,,,,,,,,,,,,,,,,,,,,,,,,,,,,,,,,,,,,,,,03S,001,2024-12-03_20h04.09.470,SOLO_PROJECT_EXPERIMENT_NUTAN_KAIN_AU2220019,2024.1.5,None,2024-12-03 20h04.34.216613 +0530,
39,0,39,0,,,,,170.04758559999755,,,,,,,,,,,,,,,,,170.03561439999612,170.04758559999755,170.04758559999755,170.04758559999755,170.04758559999755,170.04758559999755,170.04758559999755,170.04758559999755,0.0009834999800659716,170.04758559999755,171.8473884999985,[-0.0546875],[-0.18489583333333334],[1],[0],[0],[1.8104640999808908],[1],['subtle_anger'],171.8485415999894,171.86262729996815,0.00048160000005736947,171.86262729996815,171.86262729996815,171.86262729996815,171.86262729996815,171.86262729996815,171.86262729996815,171.86262729996815,173.54633250000188,[0.1796875],[0.4153645833333333],[1],[0],[0],[1.6967447999631986],[1],['subtle_anger_main'],,,,,,,,,,,,,,,,,,,,,,,,,,,,,,,,,,,,,,,,,,,,,,,,,,03S,001,2024-12-03_20h04.09.470,SOLO_PROJECT_EXPERIMENT_NUTAN_KAIN_AU2220019,2024.1.5,None,2024-12-03 20h04.34.216613 +0530,
40,0,40,0,,,,,173.5610852999962,,,,,,,,,,,,,,,,,173.54812759999186,173.5610852999962,173.5610852999962,173.5610852999962,173.5610852999962,173.5610852999962,173.5610852999962,173.5610852999962,0.0009541999897919595,173.5610852999962,175.24561359995278,[-0.515625],[-0.3203125],[1],[0],[0],[1.696076099993661],[1],['subtle_anger'],175.2473363999743,175.25917579996167,0.0008928000461310148,175.25917579996167,175.25917579996167,175.25917579996167,175.25917579996167,175.25917579996167,175.25917579996167,175.25917579996167,176.3790345999878,[-0.3463541666666667],[0.2604166666666667],[1],[0],[0],[1.1300351999816485],[1],['subtle_anger_main'],,,,,,,,,,,,,,,,,,,,,,,,,,,,,,,,,,,,,,,,,,,,,,,,,,03S,001,2024-12-03_20h04.09.470,SOLO_PROJECT_EXPERIMENT_NUTAN_KAIN_AU2220019,2024.1.5,None,2024-12-03 20h04.34.216613 +0530,
41,0,41,0,,,,,176.3930481999996,,,,,,,,,,,,,,,,,176.38155079999706,176.3930481999996,176.3930481999996,176.3930481999996,176.3930481999996,176.3930481999996,176.3930481999996,176.3930481999996,0.0012632999569177628,176.3930481999996,178.87440979998792,[-0.08463541666666667],[-0.3177083333333333],[1],[0],[0],[2.49122670001816],[1],['subtle_anger'],178.8762141999905,178.88869870000053,0.0008868000004440546,178.88869870000053,178.88869870000053,178.88869870000053,178.88869870000053,178.88869870000053,178.88869870000053,178.88869870000053,180.19066969997948,[-0.4244791666666667],[-0.049479166666666664],[1],[0],[0],[1.3129303000168875],[1],['subtle_anger_main'],,,,,,,,,,,,,,,,,,,,,,,,,,,,,,,,,,,,,,,,,,,,,,,,,,03S,001,2024-12-03_20h04.09.470,SOLO_PROJECT_EXPERIMENT_NUTAN_KAIN_AU2220019,2024.1.5,None,2024-12-03 20h04.34.216613 +0530,
42,0,42,0,,,,,180.2042809999548,,,,,,,,,,,,,,,,,180.19278749998193,180.2042809999548,180.2042809999548,180.2042809999548,180.2042809999548,180.2042809999548,180.2042809999548,180.2042809999548,0.0011194999678991735,180.2042809999548,181.68881159997545,[0.01171875],[-0.296875],[1],[0],[0],[1.4945556999882683],[1],['subtle_anger'],181.69063139997888,181.7024756000028,0.0006164000369608402,181.7024756000028,181.7024756000028,181.7024756000028,181.7024756000028,181.7024756000028,181.7024756000028,181.7024756000028,185.15147139999317,[0.049479166666666664],[0.07552083333333333],[1],[0],[0],[3.45944760000566],[1],['subtle_anger_main'],,,,,,,,,,,,,,,,,,,,,,,,,,,,,,,,,,,,,,,,,,,,,,,,,,03S,001,2024-12-03_20h04.09.470,SOLO_PROJECT_EXPERIMENT_NUTAN_KAIN_AU2220019,2024.1.5,None,2024-12-03 20h04.34.216613 +0530,
43,0,43,0,,,,,185.16646479995688,,,,,,,,,,,,,,,,,185.15411849995144,185.16646479995688,185.16646479995688,185.16646479995688,185.16646479995688,185.16646479995688,185.16646479995688,185.16646479995688,0.0013130000443197787,185.16646479995688,188.2315910999896,[0.5026041666666666],[-0.32421875],[1],[0],[0],[3.0759319000062533],[1],['subtle_anger'],188.23275209998246,188.24664289999055,0.0004930999712087214,188.24664289999055,188.24664289999055,188.24664289999055,188.24664289999055,188.24664289999055,188.24664289999055,188.24664289999055,190.5137173999683,[0.4830729166666667],[0.3138020833333333],[1],[0],[0],[2.27972829999635],[1],['subtle_anger_main'],,,,,,,,,,,,,,,,,,,,,,,,,,,,,,,,,,,,,,,,,,,,,,,,,,03S,001,2024-12-03_20h04.09.470,SOLO_PROJECT_EXPERIMENT_NUTAN_KAIN_AU2220019,2024.1.5,None,2024-12-03 20h04.34.216613 +0530,
44,0,44,0,,,,,190.52728739997838,,,,,,,,,,,,,,,,,190.51594749995274,190.52728739997838,190.52728739997838,190.52728739997838,190.52728739997838,190.52728739997838,190.52728739997838,190.52728739997838,0.0010722000151872635,190.52728739997838,192.42891009995947,[-0.23177083333333334],[0.33203125],[1],[0],[0],[1.9114132999675348],[1],['subtle_anger'],192.43068869999843,192.44216469995445,0.0007175999926403165,192.44216469995445,192.44216469995445,192.44216469995445,192.44216469995445,192.44216469995445,192.44216469995445,192.44216469995445,194.02605849999236,[-0.06640625],[0.10677083333333333],[1],[0],[0],[1.594036500027869],[1],['subtle_anger_main'],,,,,,,,,,,,,,,,,,,,,,,,,,,,,,,,,,,,,,,,,,,,,,,,,,03S,001,2024-12-03_20h04.09.470,SOLO_PROJECT_EXPERIMENT_NUTAN_KAIN_AU2220019,2024.1.5,None,2024-12-03 20h04.34.216613 +0530,
45,0,45,0,,,,,194.0406018999638,,,,,,,,,,,,,,,,,194.02754619996995,194.0406018999638,194.0406018999638,194.0406018999638,194.0406018999638,194.0406018999638,194.0406018999638,194.0406018999638,0.0008114000083878636,194.0406018999638,195.94167669996386,[0.2421875],[-0.18229166666666666],[1],[0],[0],[1.9128965000272729],[1],['subtle_anger'],195.94352179998532,195.95547779998742,0.0008579000132158399,195.95547779998742,195.95547779998742,195.95547779998742,195.95547779998742,195.95547779998742,195.95547779998742,195.95547779998742,197.62266619998263,[-0.4309895833333333],[-0.0859375],[1],[0],[0],[1.6775144000421278],[1],['subtle_anger_main'],,,,,,,,,,,,,,,,,,,,,,,,,,,,,,,,,,,,,,,,,,,,,,,,,,03S,001,2024-12-03_20h04.09.470,SOLO_PROJECT_EXPERIMENT_NUTAN_KAIN_AU2220019,2024.1.5,None,2024-12-03 20h04.34.216613 +0530,
46,0,46,0,,,,,197.63728829997126,,,,,,,,,,,,,,,,,197.6249536999967,197.63728829997126,197.63728829997126,197.63728829997126,197.63728829997126,197.63728829997126,197.63728829997126,197.63728829997126,0.0012962999753654003,197.63728829997126,199.48684929998126,[0.19010416666666666],[0.13020833333333334],[1],[0],[0],[1.8604180999682285],[1],['subtle_anger'],199.48820029996568,199.50253880000673,0.0004959999932907522,199.50253880000673,199.50253880000673,199.50253880000673,199.50253880000673,199.50253880000673,199.50253880000673,199.50253880000673,201.71906299999682,[0.4934895833333333],[-0.2734375],[1],[0],[0],[2.2297281000064686],[1],['subtle_anger_main'],,,,,,,,,,,,,,,,,,,,,,,,,,,,,,,,,,,,,,,,,,,,,,,,,,03S,001,2024-12-03_20h04.09.470,SOLO_PROJECT_EXPERIMENT_NUTAN_KAIN_AU2220019,2024.1.5,None,2024-12-03 20h04.34.216613 +0530,
47,0,47,0,,,,,201.73325900000054,,,,,,,,,,,,,,,,,201.7210899000056,201.73325900000054,201.73325900000054,201.73325900000054,201.73325900000054,201.73325900000054,201.73325900000054,201.73325900000054,0.0011768999975174665,201.73325900000054,203.8674205999705,[-0.296875],[0.3880208333333333],[1],[0],[0],[2.144596099969931],[1],['subtle_anger'],203.86960279999766,203.8814722999814,0.0008752000285312533,203.8814722999814,203.8814722999814,203.8814722999814,203.8814722999814,203.8814722999814,203.8814722999814,203.8814722999814,206.314732800005,[-0.0546875],[0.25],[1],[0],[0],[2.4434435999719426],[1],['subtle_anger_main'],,,,,,,,,,,,,,,,,,,,,,,,,,,,,,,,,,,,,,,,,,,,,,,,,,03S,001,2024-12-03_20h04.09.470,SOLO_PROJECT_EXPERIMENT_NUTAN_KAIN_AU2220019,2024.1.5,None,2024-12-03 20h04.34.216613 +0530,
48,0,48,0,,,,,206.32874729996547,,,,,,,,,,,,,,,,,206.3172747999779,206.32874729996547,206.32874729996547,206.32874729996547,206.32874729996547,206.32874729996547,206.32874729996547,206.32874729996547,0.0010775000555440784,206.32874729996547,208.5638689000043,[0.07161458333333333],[0.09375],[1],[0],[0],[2.244927900028415],[1],['subtle_anger'],208.5659360999707,208.57690339995315,0.0008229000377468765,208.57690339995315,208.57690339995315,208.57690339995315,208.57690339995315,208.57690339995315,208.57690339995315,208.57690339995315,211.95883809996303,[0.29296875],[-0.13541666666666666],[1],[0],[0],[3.3914009999716654],[1],['subtle_anger_main'],,,,,,,,,,,,,,,,,,,,,,,,,,,,,,,,,,,,,,,,,,,,,,,,,,03S,001,2024-12-03_20h04.09.470,SOLO_PROJECT_EXPERIMENT_NUTAN_KAIN_AU2220019,2024.1.5,None,2024-12-03 20h04.34.216613 +0530,
49,0,49,0,,,,,211.9730852000066,,,,,,,,,,,,,,,,,211.96081489999779,211.9730852000066,211.9730852000066,211.9730852000066,211.9730852000066,211.9730852000066,211.9730852000066,211.9730852000066,0.0011181000154465437,211.9730852000066,213.4412222999963,[0.20703125],[-0.040364583333333336],[1],[0],[0],[1.4789583999663591],[1],['subtle_anger'],213.44271689996822,213.45534829999087,0.0006395000382326543,213.45534829999087,213.45534829999087,213.45534829999087,213.45534829999087,213.45534829999087,213.45534829999087,213.45534829999087,214.79279519995907,[0.13151041666666666],[0.2890625],[1],[0],[0],[1.3483541999594308],[1],['subtle_anger_main'],,,,,,,,,,,,,,,,,,,,,,,,,,,,,,,,,,,,,,,,,,,,,,,,,,03S,001,2024-12-03_20h04.09.470,SOLO_PROJECT_EXPERIMENT_NUTAN_KAIN_AU2220019,2024.1.5,None,2024-12-03 20h04.34.216613 +0530,
,,,,,,,,,,,,,,,,,,,,,,,,,,,,,,,,,,,,,,,,,,,,,,,,,,,,,,,,,,,,,,,214.79539669997757,214.81644460000098,214.81644460000098,214.81644460000098,218.46958069998072,space,3.645108600030653,None,,,,,,,,,,,,,,,,,,,,,,,,,,,,,,,,,,,,,,,,,,03S,001,2024-12-03_20h04.09.470,SOLO_PROJECT_EXPERIMENT_NUTAN_KAIN_AU2220019,2024.1.5,None,2024-12-03 20h04.34.216613 +0530,
,,,,0,0,0,0,218.56001610000385,,,,,,,,,,,,,,,,,,,,,,,,,,,,,,,,,,,,,,,,,,,,,,,,,,,,,,,,,,,,,,,218.47182629996678,218.56001610000385,218.56001610000385,218.56001610000385,218.56001610000385,218.56001610000385,218.56001610000385,218.56001610000385,0.0032023999956436455,218.56001610000385,219.70085279998602,[-0.040364583333333336],[0.18229166666666666],[1],[0],[0],[1.2272345999954268],[1],['clear_anger'],219.7025059000007,220.17091789998813,0.0004480000352486968,220.17091789998813,220.17091789998813,220.17091789998813,220.17091789998813,220.17091789998813,220.17091789998813,220.17091789998813,220.28469199995743,[-0.040364583333333336],[0.18229166666666666],[1],[0],[0],[0.5808016000082716],[],[],,,,03S,001,2024-12-03_20h04.09.470,SOLO_PROJECT_EXPERIMENT_NUTAN_KAIN_AU2220019,2024.1.5,None,2024-12-03 20h04.34.216613 +0530,
,,,,1,0,1,0,220.31325979996473,,,,,,,,,,,,,,,,,,,,,,,,,,,,,,,,,,,,,,,,,,,,,,,,,,,,,,,,,,,,,,,220.29218729998684,220.31325979996473,220.31325979996473,220.31325979996473,220.31325979996473,220.31325979996473,220.31325979996473,220.31325979996473,0.003871200024150312,220.31325979996473,223.08095459995093,[-0.4609375],[0.049479166666666664],[1],[0],[0],[2.7852638000040315],[1],['clear_anger'],223.08288429997629,223.09540629998082,0.0008679000311531126,223.09540629998082,223.09540629998082,223.09540629998082,223.09540629998082,223.09540629998082,223.09540629998082,223.09540629998082,224.1471577999764,[-0.12890625],[0.22526041666666666],[1],[0],[0],[1.0625713999615982],[1],['clear_anger_main'],,,,03S,001,2024-12-03_20h04.09.470,SOLO_PROJECT_EXPERIMENT_NUTAN_KAIN_AU2220019,2024.1.5,None,2024-12-03 20h04.34.216613 +0530,
,,,,2,0,2,0,224.16144369996618,,,,,,,,,,,,,,,,,,,,,,,,,,,,,,,,,,,,,,,,,,,,,,,,,,,,,,,,,,,,,,,224.14949089998845,224.16144369996618,224.16144369996618,224.16144369996618,224.16144369996618,224.16144369996618,224.16144369996618,224.16144369996618,0.0013297999976202846,224.16144369996618,225.27855649997946,[-0.3580729166666667],[0.25],[1],[0],[0],[1.1275625000125729],[1],['clear_anger'],225.2798631999758,225.29360529995756,0.0004743000026792288,225.29360529995756,225.29360529995756,225.29360529995756,225.29360529995756,225.29360529995756,225.29360529995756,225.29360529995756,227.06131879996974,[-0.09114583333333333],[-0.3125],[1],[0],[0],[1.780232099990826],[1],['clear_anger_main'],,,,03S,001,2024-12-03_20h04.09.470,SOLO_PROJECT_EXPERIMENT_NUTAN_KAIN_AU2220019,2024.1.5,None,2024-12-03 20h04.34.216613 +0530,
,,,,3,0,3,0,227.0750766999554,,,,,,,,,,,,,,,,,,,,,,,,,,,,,,,,,,,,,,,,,,,,,,,,,,,,,,,,,,,,,,,227.06394829996862,227.0750766999554,227.0750766999554,227.0750766999554,227.0750766999554,227.0750766999554,227.0750766999554,227.0750766999554,0.0013896999880671501,227.0750766999554,228.79350969998632,[0.12760416666666666],[0.07291666666666667],[1],[0],[0],[1.7278190000215545],[1],['clear_anger'],228.79555179999443,228.80760549998377,0.0009212000295519829,228.80760549998377,228.80760549998377,228.80760549998377,228.80760549998377,228.80760549998377,228.80760549998377,228.80760549998377,229.84106159996009,[0.005208333333333333],[0.08854166666666667],[1],[0],[0],[1.0439887999673374],[1],['clear_anger_main'],,,,03S,001,2024-12-03_20h04.09.470,SOLO_PROJECT_EXPERIMENT_NUTAN_KAIN_AU2220019,2024.1.5,None,2024-12-03 20h04.34.216613 +0530,
,,,,4,0,4,0,229.85544769995613,,,,,,,,,,,,,,,,,,,,,,,,,,,,,,,,,,,,,,,,,,,,,,,,,,,,,,,,,,,,,,,229.8425450999639,229.85544769995613,229.85544769995613,229.85544769995613,229.85544769995613,229.85544769995613,229.85544769995613,229.85544769995613,0.0007665000157430768,229.85544769995613,231.8559072999633,[-0.34375],[-0.03125],[1],[0],[0],[2.0120550999999978],[1],['clear_anger'],231.85777079995023,231.8703475999646,0.0008572000078856945,231.8703475999646,231.8703475999646,231.8703475999646,231.8703475999646,231.8703475999646,231.8703475999646,231.8703475999646,234.7864053999656,[0.4661458333333333],[0.30859375],[1],[0],[0],[2.927066400006879],[1],['clear_anger_main'],,,,03S,001,2024-12-03_20h04.09.470,SOLO_PROJECT_EXPERIMENT_NUTAN_KAIN_AU2220019,2024.1.5,None,2024-12-03 20h04.34.216613 +0530,
,,,,5,0,5,0,234.80098609998822,,,,,,,,,,,,,,,,,,,,,,,,,,,,,,,,,,,,,,,,,,,,,,,,,,,,,,,,,,,,,,,234.7884586,234.80098609998822,234.80098609998822,234.80098609998822,234.80098609998822,234.80098609998822,234.80098609998822,234.80098609998822,0.0010678000398911536,234.80098609998822,237.55192880000686,[0.5078125],[0.3372395833333333],[1],[0],[0],[2.761924699996598],[1],['clear_anger'],237.5536318999948,237.56497189996298,0.0007664000149816275,237.56497189996298,237.56497189996298,237.56497189996298,237.56497189996298,237.56497189996298,237.56497189996298,237.56497189996298,240.11571089999052,[-0.3151041666666667],[-0.28515625],[1],[0],[0],[2.5603668999974616],[1],['clear_anger_main'],,,,03S,001,2024-12-03_20h04.09.470,SOLO_PROJECT_EXPERIMENT_NUTAN_KAIN_AU2220019,2024.1.5,None,2024-12-03 20h04.34.216613 +0530,
,,,,6,0,6,0,240.12958969996544,,,,,,,,,,,,,,,,,,,,,,,,,,,,,,,,,,,,,,,,,,,,,,,,,,,,,,,,,,,,,,,240.1184753999696,240.12958969996544,240.12958969996544,240.12958969996544,240.12958969996544,240.12958969996544,240.12958969996544,240.12958969996544,0.0014672999968752265,240.12958969996544,242.27850600000238,[-0.453125],[-0.13541666666666666],[1],[0],[0],[2.1583164000185207],[1],['clear_anger'],242.27992549998453,242.2934336999897,0.0005743000074289739,242.2934336999897,242.2934336999897,242.2934336999897,242.2934336999897,242.2934336999897,242.2934336999897,242.2934336999897,243.87763030000497,[-0.3190104166666667],[0.03125],[1],[0],[0],[1.5964835000340827],[1],['clear_anger_main'],,,,03S,001,2024-12-03_20h04.09.470,SOLO_PROJECT_EXPERIMENT_NUTAN_KAIN_AU2220019,2024.1.5,None,2024-12-03 20h04.34.216613 +0530,
,,,,7,0,7,0,243.89193579996936,,,,,,,,,,,,,,,,,,,,,,,,,,,,,,,,,,,,,,,,,,,,,,,,,,,,,,,,,,,,,,,243.8794427999528,243.89193579996936,243.89193579996936,243.89193579996936,243.89193579996936,243.89193579996936,243.89193579996936,243.89193579996936,0.0010674000368453562,243.89193579996936,245.20856509997975,[0.18359375],[0.3359375],[1],[0],[0],[1.3276504999957979],[1],['clear_anger'],245.21039089997066,245.2240644999547,0.0009005000465549529,245.2240644999547,245.2240644999547,245.2240644999547,245.2240644999547,245.2240644999547,245.2240644999547,245.2240644999547,246.2589658999932,[-0.22135416666666666],[0.033854166666666664],[1],[0],[0],[1.0467584999860264],[1],['clear_anger_main'],,,,03S,001,2024-12-03_20h04.09.470,SOLO_PROJECT_EXPERIMENT_NUTAN_KAIN_AU2220019,2024.1.5,None,2024-12-03 20h04.34.216613 +0530,
,,,,8,0,8,0,246.2731014000019,,,,,,,,,,,,,,,,,,,,,,,,,,,,,,,,,,,,,,,,,,,,,,,,,,,,,,,,,,,,,,,246.26134289999027,246.2731014000019,246.2731014000019,246.2731014000019,246.2731014000019,246.2731014000019,246.2731014000019,246.2731014000019,0.0012554999557323754,246.2731014000019,247.17404759995406,[-0.4140625],[0.053385416666666664],[1],[0],[0],[0.9111269999993965],[1],['clear_anger'],247.17583699995885,247.18861179996748,0.0007923999801278114,247.18861179996748,247.18861179996748,247.18861179996748,247.18861179996748,247.18861179996748,247.18861179996748,247.18861179996748,249.18875889998162,[0.4127604166666667],[0.2630208333333333],[1],[0],[0],[2.0114235999644734],[1],['clear_anger_main'],,,,03S,001,2024-12-03_20h04.09.470,SOLO_PROJECT_EXPERIMENT_NUTAN_KAIN_AU2220019,2024.1.5,None,2024-12-03 20h04.34.216613 +0530,
,,,,9,0,9,0,249.20322739996482,,,,,,,,,,,,,,,,,,,,,,,,,,,,,,,,,,,,,,,,,,,,,,,,,,,,,,,,,,,,,,,249.19114319997607,249.20322739996482,249.20322739996482,249.20322739996482,249.20322739996482,249.20322739996482,249.20322739996482,249.20322739996482,0.0012814999790862203,249.20322739996482,250.1748430999578,[-0.13020833333333334],[-0.01953125],[1],[0],[0],[0.9815835999906994],[1],['clear_anger'],250.17714509996586,250.19109049998224,0.001048100006300956,250.19109049998224,250.19109049998224,250.19109049998224,250.19109049998224,250.19109049998224,250.19109049998224,250.19109049998224,251.820934999967,[0.4114583333333333],[0.40625],[1],[0],[0],[1.6419498000177555],[1],['clear_anger_main'],,,,03S,001,2024-12-03_20h04.09.470,SOLO_PROJECT_EXPERIMENT_NUTAN_KAIN_AU2220019,2024.1.5,None,2024-12-03 20h04.34.216613 +0530,
,,,,10,0,10,0,251.83459369995398,,,,,,,,,,,,,,,,,,,,,,,,,,,,,,,,,,,,,,,,,,,,,,,,,,,,,,,,,,,,,,,251.82335729995975,251.83459369995398,251.83459369995398,251.83459369995398,251.83459369995398,251.83459369995398,251.83459369995398,251.83459369995398,0.0014631000231020153,251.83459369995398,253.03505149995908,[-0.4348958333333333],[0.13020833333333334],[1],[0],[0],[1.2101181000471115],[1],['clear_anger'],253.03670539997984,253.04940179997357,0.0006615999736823142,253.04940179997357,253.04940179997357,253.04940179997357,253.04940179997357,253.04940179997357,253.04940179997357,253.04940179997357,255.38325969997095,[-0.14453125],[-0.109375],[1],[0],[0],[2.3452571000088938],[1],['clear_anger_main'],,,,03S,001,2024-12-03_20h04.09.470,SOLO_PROJECT_EXPERIMENT_NUTAN_KAIN_AU2220019,2024.1.5,None,2024-12-03 20h04.34.216613 +0530,
,,,,11,0,11,0,255.39790280000307,,,,,,,,,,,,,,,,,,,,,,,,,,,,,,,,,,,,,,,,,,,,,,,,,,,,,,,,,,,,,,,255.38542179996148,255.39790280000307,255.39790280000307,255.39790280000307,255.39790280000307,255.39790280000307,255.39790280000307,255.39790280000307,0.0012505999766290188,255.39790280000307,258.148629000003,[-0.3072916666666667],[0.3763020833333333],[1],[0],[0],[2.7614875999861397],[1],['clear_anger'],258.1506713999552,258.16185029997723,0.0007957000052556396,258.16185029997723,258.16185029997723,258.16185029997723,258.16185029997723,258.16185029997723,258.16185029997723,258.16185029997723,260.527434299991,[-0.2994791666666667],[-0.41796875],[1],[0],[0],[2.3752384999534115],[1],['clear_anger_main'],,,,03S,001,2024-12-03_20h04.09.470,SOLO_PROJECT_EXPERIMENT_NUTAN_KAIN_AU2220019,2024.1.5,None,2024-12-03 20h04.34.216613 +0530,
,,,,12,0,12,0,260.54221939999843,,,,,,,,,,,,,,,,,,,,,,,,,,,,,,,,,,,,,,,,,,,,,,,,,,,,,,,,,,,,,,,260.529519099975,260.54221939999843,260.54221939999843,260.54221939999843,260.54221939999843,260.54221939999843,260.54221939999843,260.54221939999843,0.0011204999755136669,260.54221939999843,261.9926891999785,[0.4596354166666667],[-0.3815104166666667],[1],[0],[0],[1.4617672000313178],[1],['clear_anger'],261.9941121999873,262.00688770000124,0.0005173999816179276,262.00688770000124,262.00688770000124,262.00688770000124,262.00688770000124,262.00688770000124,262.00688770000124,262.00688770000124,263.84190100000706,[-0.19010416666666666],[-0.4127604166666667],[1],[0],[0],[1.8465787000022829],[1],['clear_anger_main'],,,,03S,001,2024-12-03_20h04.09.470,SOLO_PROJECT_EXPERIMENT_NUTAN_KAIN_AU2220019,2024.1.5,None,2024-12-03 20h04.34.216613 +0530,
,,,,13,0,13,0,263.8559328999836,,,,,,,,,,,,,,,,,,,,,,,,,,,,,,,,,,,,,,,,,,,,,,,,,,,,,,,,,,,,,,,263.8441083999933,263.8559328999836,263.8559328999836,263.8559328999836,263.8559328999836,263.8559328999836,263.8559328999836,263.8559328999836,0.0012370999902486801,263.8559328999836,265.64058659999864,[0.2799479166666667],[-0.3528645833333333],[1],[0],[0],[1.7947743000113405],[1],['clear_anger'],265.6424616999575,265.654210699955,0.0013135999906808138,265.654210699955,265.654210699955,265.654210699955,265.654210699955,265.654210699955,265.654210699955,265.654210699955,267.30459939996945,[0.3645833333333333],[0.11067708333333333],[1],[0],[0],[1.6600245000445284],[1],['clear_anger_main'],,,,03S,001,2024-12-03_20h04.09.470,SOLO_PROJECT_EXPERIMENT_NUTAN_KAIN_AU2220019,2024.1.5,None,2024-12-03 20h04.34.216613 +0530,
,,,,14,0,14,0,267.31877759995405,,,,,,,,,,,,,,,,,,,,,,,,,,,,,,,,,,,,,,,,,,,,,,,,,,,,,,,,,,,,,,,267.3067707999726,267.31877759995405,267.31877759995405,267.31877759995405,267.31877759995405,267.31877759995405,267.31877759995405,267.31877759995405,0.0011766999959945679,267.31877759995405,269.10270719998516,[0.3255208333333333],[-0.3346354166666667],[1],[0],[0],[1.7945393999689259],[1],['clear_anger'],269.10397389996797,269.1172544999863,0.00048800004879012704,269.1172544999863,269.1172544999863,269.1172544999863,269.1172544999863,269.1172544999863,269.1172544999863,269.1172544999863,271.319525400002,[-0.2565104166666667],[-0.42578125],[1],[0],[0],[2.214233200007584],[1],['clear_anger_main'],,,,03S,001,2024-12-03_20h04.09.470,SOLO_PROJECT_EXPERIMENT_NUTAN_KAIN_AU2220019,2024.1.5,None,2024-12-03 20h04.34.216613 +0530,
,,,,15,0,15,0,271.33344189997297,,,,,,,,,,,,,,,,,,,,,,,,,,,,,,,,,,,,,,,,,,,,,,,,,,,,,,,,,,,,,,,271.32205309998244,271.33344189997297,271.33344189997297,271.33344189997297,271.33344189997297,271.33344189997297,271.33344189997297,271.33344189997297,0.0012404000153765082,271.33344189997297,273.531616399996,[-0.3997395833333333],[0.3723958333333333],[1],[0],[0],[2.2080144000356086],[1],['clear_anger'],273.5337153999717,273.5464972999762,0.0013249999610707164,273.5464972999762,273.5464972999762,273.5464972999762,273.5464972999762,273.5464972999762,273.5464972999762,273.5464972999762,274.99723589996574,[0.15494791666666666],[0.15625],[1],[0],[0],[1.4611813999945298],[1],['clear_anger_main'],,,,03S,001,2024-12-03_20h04.09.470,SOLO_PROJECT_EXPERIMENT_NUTAN_KAIN_AU2220019,2024.1.5,None,2024-12-03 20h04.34.216613 +0530,
,,,,16,0,16,0,275.0114374999539,,,,,,,,,,,,,,,,,,,,,,,,,,,,,,,,,,,,,,,,,,,,,,,,,,,,,,,,,,,,,,,274.99996180000016,275.0114374999539,275.0114374999539,275.0114374999539,275.0114374999539,275.0114374999539,275.0114374999539,275.0114374999539,0.0013922000071033835,275.0114374999539,276.61259420000715,[-0.17057291666666666],[0.4609375],[1],[0],[0],[1.6110298999701627],[1],['clear_anger'],276.61427199997706,276.6261580999708,0.0007519000209867954,276.6261580999708,276.6261580999708,276.6261580999708,276.6261580999708,276.6261580999708,276.6261580999708,276.6261580999708,277.9785942999879,[0.3190104166666667],[0.3958333333333333],[1],[0],[0],[1.3627723000245169],[1],['clear_anger_main'],,,,03S,001,2024-12-03_20h04.09.470,SOLO_PROJECT_EXPERIMENT_NUTAN_KAIN_AU2220019,2024.1.5,None,2024-12-03 20h04.34.216613 +0530,
,,,,17,0,17,0,277.9920360999531,,,,,,,,,,,,,,,,,,,,,,,,,,,,,,,,,,,,,,,,,,,,,,,,,,,,,,,,,,,,,,,277.98102569999173,277.9920360999531,277.9920360999531,277.9920360999531,277.9920360999531,277.9920360999531,277.9920360999531,277.9920360999531,0.0011823999811895192,277.9920360999531,279.6082821000018,[-0.0859375],[0.13671875],[1],[0],[0],[1.6257829999667592],[1],['clear_anger'],279.6094238999649,279.6233965999563,0.0004718999844044447,279.6233965999563,279.6233965999563,279.6233965999563,279.6233965999563,279.6233965999563,279.6233965999563,279.6233965999563,282.356753,[-0.11328125],[-0.18619791666666666],[1],[0],[0],[2.7461890999693424],[1],['clear_anger_main'],,,,03S,001,2024-12-03_20h04.09.470,SOLO_PROJECT_EXPERIMENT_NUTAN_KAIN_AU2220019,2024.1.5,None,2024-12-03 20h04.34.216613 +0530,
,,,,18,0,18,0,282.3709959999542,,,,,,,,,,,,,,,,,,,,,,,,,,,,,,,,,,,,,,,,,,,,,,,,,,,,,,,,,,,,,,,282.3591557999607,282.3709959999542,282.3709959999542,282.3709959999542,282.3709959999542,282.3709959999542,282.3709959999542,282.3709959999542,0.001512100046966225,282.3709959999542,283.97095240000635,[0.13411458333333334],[-0.022135416666666668],[1],[0],[0],[1.6103326000156812],[1],['clear_anger'],283.9722711999784,283.9858766999678,0.0006258999928832054,283.9858766999678,283.9858766999678,283.9858766999678,283.9858766999678,283.9858766999678,283.9858766999678,283.9858766999678,285.8367834999808,[0.11458333333333333],[0.13802083333333334],[1],[0],[0],[1.8631528000114486],[1],['clear_anger_main'],,,,03S,001,2024-12-03_20h04.09.470,SOLO_PROJECT_EXPERIMENT_NUTAN_KAIN_AU2220019,2024.1.5,None,2024-12-03 20h04.34.216613 +0530,
,,,,19,0,19,0,285.85052979999455,,,,,,,,,,,,,,,,,,,,,,,,,,,,,,,,,,,,,,,,,,,,,,,,,,,,,,,,,,,,,,,285.8391568000079,285.85052979999455,285.85052979999455,285.85052979999455,285.85052979999455,285.85052979999455,285.85052979999455,285.85052979999455,0.0013046999811194837,285.85052979999455,288.49998329998925,[-0.4296875],[0.38671875],[1],[0],[0],[2.659161399991717],[1],['clear_anger'],288.50174449995393,288.51470589998644,0.0008273999555967748,288.51470589998644,288.51470589998644,288.51470589998644,288.51470589998644,288.51470589998644,288.51470589998644,288.51470589998644,290.5321629999671,[-0.43359375],[-0.15494791666666666],[1],[0],[0],[2.02892970002722],[1],['clear_anger_main'],,,,03S,001,2024-12-03_20h04.09.470,SOLO_PROJECT_EXPERIMENT_NUTAN_KAIN_AU2220019,2024.1.5,None,2024-12-03 20h04.34.216613 +0530,
,,,,20,0,20,0,290.5459238999756,,,,,,,,,,,,,,,,,,,,,,,,,,,,,,,,,,,,,,,,,,,,,,,,,,,,,,,,,,,,,,,290.5339900999679,290.5459238999756,290.5459238999756,290.5459238999756,290.5459238999756,290.5459238999756,290.5459238999756,290.5459238999756,0.0010257999529130757,290.5459238999756,291.48108030000003,[-0.4869791666666667],[0.17317708333333334],[1],[0],[0],[0.9457610999816097],[1],['clear_anger'],291.48252550000325,291.4951366999885,0.0006656000041402876,291.4951366999885,291.4951366999885,291.4951366999885,291.4951366999885,291.4951366999885,291.4951366999885,291.4951366999885,293.2453831000021,[0.11848958333333333],[-0.171875],[1],[0],[0],[1.7615989000187255],[1],['clear_anger_main'],,,,03S,001,2024-12-03_20h04.09.470,SOLO_PROJECT_EXPERIMENT_NUTAN_KAIN_AU2220019,2024.1.5,None,2024-12-03 20h04.34.216613 +0530,
,,,,21,0,21,0,293.26043149997713,,,,,,,,,,,,,,,,,,,,,,,,,,,,,,,,,,,,,,,,,,,,,,,,,,,,,,,,,,,,,,,293.247186099994,293.26043149997713,293.26043149997713,293.26043149997713,293.26043149997713,293.26043149997713,293.26043149997713,293.26043149997713,0.0010186000145040452,293.26043149997713,297.9238712999504,[0.3854166666666667],[0.13541666666666666],[1],[0],[0],[4.675341300026048],[1],['clear_anger'],297.925434099976,297.9388091999572,0.0007389999809674919,297.9388091999572,297.9388091999572,297.9388091999572,297.9388091999572,297.9388091999572,297.9388091999572,297.9388091999572,299.3067624999676,[0.38671875],[0.3229166666666667],[1],[0],[0],[1.3797937000053935],[1],['clear_anger_main'],,,,03S,001,2024-12-03_20h04.09.470,SOLO_PROJECT_EXPERIMENT_NUTAN_KAIN_AU2220019,2024.1.5,None,2024-12-03 20h04.34.216613 +0530,
,,,,22,0,22,0,299.3208125999663,,,,,,,,,,,,,,,,,,,,,,,,,,,,,,,,,,,,,,,,,,,,,,,,,,,,,,,,,,,,,,,299.3084969999618,299.3208125999663,299.3208125999663,299.3208125999663,299.3208125999663,299.3208125999663,299.3208125999663,299.3208125999663,0.001108399999793619,299.3208125999663,301.1882557999925,[-0.1015625],[-0.24869791666666666],[1],[0],[0],[1.8782004000386223],[1],['clear_anger'],301.19010469998466,301.2025316999643,0.0007422000053338706,301.2025316999643,301.2025316999643,301.2025316999643,301.2025316999643,301.2025316999643,301.2025316999643,301.2025316999643,302.45339699997567,[-0.16145833333333334],[0.17317708333333334],[1],[0],[0],[1.261904599959962],[],[],,,,03S,001,2024-12-03_20h04.09.470,SOLO_PROJECT_EXPERIMENT_NUTAN_KAIN_AU2220019,2024.1.5,None,2024-12-03 20h04.34.216613 +0530,
,,,,23,0,23,0,302.4677878000075,,,,,,,,,,,,,,,,,,,,,,,,,,,,,,,,,,,,,,,,,,,,,,,,,,,,,,,,,,,,,,,302.4556271999609,302.4677878000075,302.4677878000075,302.4677878000075,302.4677878000075,302.4677878000075,302.4677878000075,302.4677878000075,0.0011624000035226345,302.4677878000075,303.9528002999723,[0.20963541666666666],[-0.3372395833333333],[1],[0],[0],[1.4956577999982983],[1],['clear_anger'],303.9544669999741,303.9662345999968,0.0006372000207193196,303.9662345999968,303.9662345999968,303.9662345999968,303.9662345999968,303.9662345999968,303.9662345999968,303.9662345999968,305.7671812999761,[-0.4791666666666667],[0.18489583333333334],[1],[0],[0],[1.8113108000252396],[1],['clear_anger_main'],,,,03S,001,2024-12-03_20h04.09.470,SOLO_PROJECT_EXPERIMENT_NUTAN_KAIN_AU2220019,2024.1.5,None,2024-12-03 20h04.34.216613 +0530,
,,,,24,0,24,0,305.7812045000028,,,,,,,,,,,,,,,,,,,,,,,,,,,,,,,,,,,,,,,,,,,,,,,,,,,,,,,,,,,,,,,305.76928770000814,305.7812045000028,305.7812045000028,305.7812045000028,305.7812045000028,305.7812045000028,305.7812045000028,305.7812045000028,0.0011581999715417624,305.7812045000028,307.58168989996193,[-0.2890625],[0.053385416666666664],[1],[0],[0],[1.810948800004553],[1],['clear_anger'],307.58285179996165,307.5962088999804,0.00044299999717622995,307.5962088999804,307.5962088999804,307.5962088999804,307.5962088999804,307.5962088999804,307.5962088999804,307.5962088999804,308.8975761999609,[-0.05078125],[0.3046875],[1],[0],[0],[1.3136366999824531],[1],['clear_anger_main'],,,,03S,001,2024-12-03_20h04.09.470,SOLO_PROJECT_EXPERIMENT_NUTAN_KAIN_AU2220019,2024.1.5,None,2024-12-03 20h04.34.216613 +0530,
,,,,25,0,25,0,308.9118371999939,,,,,,,,,,,,,,,,,,,,,,,,,,,,,,,,,,,,,,,,,,,,,,,,,,,,,,,,,,,,,,,308.8997779999627,308.9118371999939,308.9118371999939,308.9118371999939,308.9118371999939,308.9118371999939,308.9118371999939,308.9118371999939,0.0011078999959863722,308.9118371999939,311.11177379998844,[0.08072916666666667],[0.1640625],[1],[0],[0],[2.210543700028211],[1],['clear_anger'],311.1133189999964,311.12605389999226,0.0007989999721758068,311.12605389999226,311.12605389999226,311.12605389999226,311.12605389999226,311.12605389999226,311.12605389999226,311.12605389999226,315.0575933000073,[0.2513020833333333],[-0.203125],[1],[0],[0],[3.942764699982945],[1],['clear_anger_main'],,,,03S,001,2024-12-03_20h04.09.470,SOLO_PROJECT_EXPERIMENT_NUTAN_KAIN_AU2220019,2024.1.5,None,2024-12-03 20h04.34.216613 +0530,
,,,,26,0,26,0,315.07200489996467,,,,,,,,,,,,,,,,,,,,,,,,,,,,,,,,,,,,,,,,,,,,,,,,,,,,,,,,,,,,,,,315.0596617999836,315.07200489996467,315.07200489996467,315.07200489996467,315.07200489996467,315.07200489996467,315.07200489996467,315.07200489996467,0.0009809999610297382,315.07200489996467,317.02232589997584,[0.09635416666666667],[-0.17317708333333334],[1],[0],[0],[1.9611527999513783],[1],['clear_anger'],317.0240389999817,317.036706599989,0.0007519000209867954,317.036706599989,317.036706599989,317.036706599989,317.036706599989,317.036706599989,317.036706599989,317.036706599989,318.57077160000335,[0.2994791666666667],[0.11067708333333333],[1],[0],[0],[1.5452706000069156],[1],['clear_anger_main'],,,,03S,001,2024-12-03_20h04.09.470,SOLO_PROJECT_EXPERIMENT_NUTAN_KAIN_AU2220019,2024.1.5,None,2024-12-03 20h04.34.216613 +0530,
,,,,27,0,27,0,318.58492549997754,,,,,,,,,,,,,,,,,,,,,,,,,,,,,,,,,,,,,,,,,,,,,,,,,,,,,,,,,,,,,,,318.57322249998106,318.58492549997754,318.58492549997754,318.58492549997754,318.58492549997754,318.58492549997754,318.58492549997754,318.58492549997754,0.0011737000313587487,318.58492549997754,320.03588699997636,[-0.2916666666666667],[-0.2734375],[1],[0],[0],[1.461257899994962],[1],['clear_anger'],320.03725959995063,320.05036329996074,0.0007054999587126076,320.05036329996074,320.05036329996074,320.05036329996074,320.05036329996074,320.05036329996074,320.05036329996074,320.05036329996074,321.16806199995335,[0.12630208333333334],[-0.041666666666666664],[1],[0],[0],[1.1295042999554425],[1],['clear_anger_main'],,,,03S,001,2024-12-03_20h04.09.470,SOLO_PROJECT_EXPERIMENT_NUTAN_KAIN_AU2220019,2024.1.5,None,2024-12-03 20h04.34.216613 +0530,
,,,,28,0,28,0,321.18283219996374,,,,,,,,,,,,,,,,,,,,,,,,,,,,,,,,,,,,,,,,,,,,,,,,,,,,,,,,,,,,,,,321.1695834999555,321.18283219996374,321.18283219996374,321.18283219996374,321.18283219996374,321.18283219996374,321.18283219996374,321.18283219996374,0.0008368999697268009,321.18283219996374,322.26710169995204,[-0.19661458333333334],[-0.21354166666666666],[1],[0],[0],[1.0963351000100374],[1],['clear_anger'],322.2684293999919,322.28186749998713,0.0005474999779835343,322.28186749998713,322.28186749998713,322.28186749998713,322.28186749998713,322.28186749998713,322.28186749998713,322.28186749998713,323.93328649998875,[0.5143229166666666],[-0.13541666666666666],[1],[0],[0],[1.66353010002058],[1],['clear_anger_main'],,,,03S,001,2024-12-03_20h04.09.470,SOLO_PROJECT_EXPERIMENT_NUTAN_KAIN_AU2220019,2024.1.5,None,2024-12-03 20h04.34.216613 +0530,
,,,,29,0,29,0,323.9466916999663,,,,,,,,,,,,,,,,,,,,,,,,,,,,,,,,,,,,,,,,,,,,,,,,,,,,,,,,,,,,,,,323.93546449998394,323.9466916999663,323.9466916999663,323.9466916999663,323.9466916999663,323.9466916999663,323.9466916999663,323.9466916999663,0.001144799985922873,323.9466916999663,325.43009739997797,[0.052083333333333336],[-0.22265625],[1],[0],[0],[1.4932093999814242],[1],['clear_anger'],325.43143840000266,325.44518529996276,0.0005551999784074724,325.44518529996276,325.44518529996276,325.44518529996276,325.44518529996276,325.44518529996276,325.44518529996276,325.44518529996276,327.74432209995575,[-0.3776041666666667],[0.4505208333333333],[1],[0],[0],[2.311707600019872],[1],['clear_anger_main'],,,,03S,001,2024-12-03_20h04.09.470,SOLO_PROJECT_EXPERIMENT_NUTAN_KAIN_AU2220019,2024.1.5,None,2024-12-03 20h04.34.216613 +0530,
,,,,30,0,30,0,327.75988679996226,,,,,,,,,,,,,,,,,,,,,,,,,,,,,,,,,,,,,,,,,,,,,,,,,,,,,,,,,,,,,,,327.74612619995605,327.75988679996226,327.75988679996226,327.75988679996226,327.75988679996226,327.75988679996226,327.75988679996226,327.75988679996226,0.0008295999723486602,327.75988679996226,328.793990199978,[-0.3919270833333333],[0.3776041666666667],[1],[0],[0],[1.0465458999969997],[1],['clear_anger'],328.79591729998356,328.8084330999991,0.0007614000351168215,328.8084330999991,328.8084330999991,328.8084330999991,328.8084330999991,328.8084330999991,328.8084330999991,328.8084330999991,330.02601299999515,[0.06510416666666667],[0.016927083333333332],[1],[0],[0],[1.2286911999690346],[1],['clear_anger_main'],,,,03S,001,2024-12-03_20h04.09.470,SOLO_PROJECT_EXPERIMENT_NUTAN_KAIN_AU2220019,2024.1.5,None,2024-12-03 20h04.34.216613 +0530,
,,,,31,0,31,0,330.0403110999614,,,,,,,,,,,,,,,,,,,,,,,,,,,,,,,,,,,,,,,,,,,,,,,,,,,,,,,,,,,,,,,330.02803210000275,330.0403110999614,330.0403110999614,330.0403110999614,330.0403110999614,330.0403110999614,330.0403110999614,330.0403110999614,0.0011273000272922218,330.0403110999614,331.2587198999827,[0.015625],[-0.171875],[1],[0],[0],[1.229109400010202],[1],['clear_anger'],331.2603897000081,331.27277809998486,0.0007596999639645219,331.27277809998486,331.27277809998486,331.27277809998486,331.27277809998486,331.27277809998486,331.27277809998486,331.27277809998486,332.8566396999522,[0.22395833333333334],[0.19270833333333334],[1],[0],[0],[1.5948715000413358],[1],['clear_anger_main'],,,,03S,001,2024-12-03_20h04.09.470,SOLO_PROJECT_EXPERIMENT_NUTAN_KAIN_AU2220019,2024.1.5,None,2024-12-03 20h04.34.216613 +0530,
,,,,32,0,32,0,332.8712657999713,,,,,,,,,,,,,,,,,,,,,,,,,,,,,,,,,,,,,,,,,,,,,,,,,,,,,,,,,,,,,,,332.85872469999595,332.8712657999713,332.8712657999713,332.8712657999713,332.8712657999713,332.8712657999713,332.8712657999713,332.8712657999713,0.0017679999582469463,332.8712657999713,336.6022550999769,[0.2760416666666667],[-0.30859375],[1],[0],[0],[3.741493300010916],[1],['clear_anger'],336.6033621999668,336.6175664999755,0.00046439998550340533,336.6175664999755,336.6175664999755,336.6175664999755,336.6175664999755,336.6175664999755,336.6175664999755,336.6175664999755,337.85184049996315,[-0.033854166666666664],[-0.171875],[1],[0],[0],[1.2473191000171937],[1],['clear_anger_main'],,,,03S,001,2024-12-03_20h04.09.470,SOLO_PROJECT_EXPERIMENT_NUTAN_KAIN_AU2220019,2024.1.5,None,2024-12-03 20h04.34.216613 +0530,
,,,,33,0,33,0,337.8661269999575,,,,,,,,,,,,,,,,,,,,,,,,,,,,,,,,,,,,,,,,,,,,,,,,,,,,,,,,,,,,,,,337.8536772999796,337.8661269999575,337.8661269999575,337.8661269999575,337.8661269999575,337.8661269999575,337.8661269999575,337.8661269999575,0.0010192000190727413,337.8661269999575,339.18312770000193,[-0.4283854166666667],[-0.17838541666666666],[1],[0],[0],[1.328034900012426],[1],['clear_anger'],339.1847390999901,339.19850659999065,0.00077039998723194,339.19850659999065,339.19850659999065,339.19850659999065,339.19850659999065,339.19850659999065,339.19850659999065,339.19850659999065,340.4998987999861,[0.4348958333333333],[-0.005208333333333333],[1],[0],[0],[1.3134309999877587],[1],['clear_anger_main'],,,,03S,001,2024-12-03_20h04.09.470,SOLO_PROJECT_EXPERIMENT_NUTAN_KAIN_AU2220019,2024.1.5,None,2024-12-03 20h04.34.216613 +0530,
,,,,34,0,34,0,340.5142917999765,,,,,,,,,,,,,,,,,,,,,,,,,,,,,,,,,,,,,,,,,,,,,,,,,,,,,,,,,,,,,,,340.5029859999777,340.5142917999765,340.5142917999765,340.5142917999765,340.5142917999765,340.5142917999765,340.5142917999765,340.5142917999765,0.00120599998626858,340.5142917999765,341.7984319999814,[-0.23307291666666666],[0.3854166666666667],[1],[0],[0],[1.2939325000043027],[1],['clear_anger'],341.80031719995895,341.81298960000277,0.0007699999841861427,341.81298960000277,341.81298960000277,341.81298960000277,341.81298960000277,341.81298960000277,341.81298960000277,341.81298960000277,344.0467313999543,[-0.4674479166666667],[-0.21875],[1],[0],[0],[2.2448899999726564],[1],['clear_anger_main'],,,,03S,001,2024-12-03_20h04.09.470,SOLO_PROJECT_EXPERIMENT_NUTAN_KAIN_AU2220019,2024.1.5,None,2024-12-03 20h04.34.216613 +0530,
,,,,35,0,35,0,344.06025829998543,,,,,,,,,,,,,,,,,,,,,,,,,,,,,,,,,,,,,,,,,,,,,,,,,,,,,,,,,,,,,,,344.0488127999706,344.06025829998543,344.06025829998543,344.06025829998543,344.06025829998543,344.06025829998543,344.06025829998543,344.06025829998543,0.0011635000118985772,344.06025829998543,345.3276740000001,[0.359375],[0.09895833333333333],[1],[0],[0],[1.2773710999754258],[1],['clear_anger'],345.32942959998036,345.3425339999958,0.0008907000301405787,345.3425339999958,345.3425339999958,345.3425339999958,345.3425339999958,345.3425339999958,345.3425339999958,345.3425339999958,347.02655680000316,[0.5091145833333334],[-0.053385416666666664],[1],[0],[0],[1.6955447000218555],[1],['clear_anger_main'],,,,03S,001,2024-12-03_20h04.09.470,SOLO_PROJECT_EXPERIMENT_NUTAN_KAIN_AU2220019,2024.1.5,None,2024-12-03 20h04.34.216613 +0530,
,,,,36,0,36,0,347.0401615999872,,,,,,,,,,,,,,,,,,,,,,,,,,,,,,,,,,,,,,,,,,,,,,,,,,,,,,,,,,,,,,,347.0286259999848,347.0401615999872,347.0401615999872,347.0401615999872,347.0401615999872,347.0401615999872,347.0401615999872,347.0401615999872,0.0011681999894790351,347.0401615999872,348.8089773999527,[-0.0390625],[0.40234375],[1],[0],[0],[1.7787141000153497],[1],['clear_anger'],348.811060899985,348.82290199998533,0.000876300036907196,348.82290199998533,348.82290199998533,348.82290199998533,348.82290199998533,348.82290199998533,348.82290199998533,348.82290199998533,349.79006109997863,[0.21484375],[0.4388020833333333],[1],[0],[0],[0.9774769999785349],[1],['clear_anger_main'],,,,03S,001,2024-12-03_20h04.09.470,SOLO_PROJECT_EXPERIMENT_NUTAN_KAIN_AU2220019,2024.1.5,None,2024-12-03 20h04.34.216613 +0530,
,,,,37,0,37,0,349.8044358000043,,,,,,,,,,,,,,,,,,,,,,,,,,,,,,,,,,,,,,,,,,,,,,,,,,,,,,,,,,,,,,,349.79174199997215,349.8044358000043,349.8044358000043,349.8044358000043,349.8044358000043,349.8044358000043,349.8044358000043,349.8044358000043,0.0010147999855689704,349.8044358000043,351.53831440000795,[-0.2864583333333333],[-0.2890625],[1],[0],[0],[1.7452044999809004],[1],['clear_anger'],351.5397907999577,351.55309149995446,0.0007212000200524926,351.55309149995446,351.55309149995446,351.55309149995446,351.55309149995446,351.55309149995446,351.55309149995446,351.55309149995446,353.2546960999607,[0.37109375],[0.4140625],[1],[0],[0],[1.7132605999941006],[1],['clear_anger_main'],,,,03S,001,2024-12-03_20h04.09.470,SOLO_PROJECT_EXPERIMENT_NUTAN_KAIN_AU2220019,2024.1.5,None,2024-12-03 20h04.34.216613 +0530,
,,,,38,0,38,0,353.2704387999838,,,,,,,,,,,,,,,,,,,,,,,,,,,,,,,,,,,,,,,,,,,,,,,,,,,,,,,,,,,,,,,353.2579135999549,353.2704387999838,353.2704387999838,353.2704387999838,353.2704387999838,353.2704387999838,353.2704387999838,353.2704387999838,0.0017611999646760523,353.2704387999838,355.23481059999904,[-0.045572916666666664],[-0.32421875],[1],[0],[0],[1.9749009999795817],[1],['clear_anger'],355.2368758000084,355.24912069999846,0.0008666000212542713,355.24912069999846,355.24912069999846,355.24912069999846,355.24912069999846,355.24912069999846,355.24912069999846,355.24912069999846,357.46615349996137,[0.20182291666666666],[-0.2838541666666667],[1],[0],[0],[2.22772869997425],[1],['clear_anger_main'],,,,03S,001,2024-12-03_20h04.09.470,SOLO_PROJECT_EXPERIMENT_NUTAN_KAIN_AU2220019,2024.1.5,None,2024-12-03 20h04.34.216613 +0530,
,,,,39,0,39,0,357.4804468000075,,,,,,,,,,,,,,,,,,,,,,,,,,,,,,,,,,,,,,,,,,,,,,,,,,,,,,,,,,,,,,,357.4685491999844,357.4804468000075,357.4804468000075,357.4804468000075,357.4804468000075,357.4804468000075,357.4804468000075,357.4804468000075,0.0011064999853260815,357.4804468000075,359.3819770999835,[-0.4674479166666667],[-0.21744791666666666],[1],[0],[0],[1.9120248000253923],[1],['clear_anger'],359.38349179999204,359.39548239996657,0.000672499998472631,359.39548239996657,359.39548239996657,359.39548239996657,359.39548239996657,359.39548239996657,359.39548239996657,359.39548239996657,360.8984418999753,[-0.4114583333333333],[0.057291666666666664],[1],[0],[0],[1.5133419000194408],[1],['clear_anger_main'],,,,03S,001,2024-12-03_20h04.09.470,SOLO_PROJECT_EXPERIMENT_NUTAN_KAIN_AU2220019,2024.1.5,None,2024-12-03 20h04.34.216613 +0530,
,,,,40,0,40,0,360.9116741999751,,,,,,,,,,,,,,,,,,,,,,,,,,,,,,,,,,,,,,,,,,,,,,,,,,,,,,,,,,,,,,,360.9007269999711,360.9116741999751,360.9116741999751,360.9116741999751,360.9116741999751,360.9116741999751,360.9116741999751,360.9116741999751,0.0012558000162243843,360.9116741999751,362.34490789996926,[0.5377604166666666],[0.18619791666666666],[1],[0],[0],[1.4426032000337727],[1],['clear_anger'],362.3467046999722,362.35871509998105,0.0008030000026337802,362.35871509998105,362.35871509998105,362.35871509998105,362.35871509998105,362.35871509998105,362.35871509998105,362.35871509998105,364.509645299986,[-0.43359375],[-0.17447916666666666],[1],[0],[0],[2.1613439000211656],[1],['clear_anger_main'],,,,03S,001,2024-12-03_20h04.09.470,SOLO_PROJECT_EXPERIMENT_NUTAN_KAIN_AU2220019,2024.1.5,None,2024-12-03 20h04.34.216613 +0530,
,,,,41,0,41,0,364.5234288999927,,,,,,,,,,,,,,,,,,,,,,,,,,,,,,,,,,,,,,,,,,,,,,,,,,,,,,,,,,,,,,,364.5117370999651,364.5234288999927,364.5234288999927,364.5234288999927,364.5234288999927,364.5234288999927,364.5234288999927,364.5234288999927,0.0011826999834738672,364.5234288999927,365.7417831000057,[-0.4583333333333333],[0.19140625],[1],[0],[0],[1.2284542000270449],[1],['clear_anger'],365.74343959998805,365.7554533999646,0.000777199980802834,365.7554533999646,365.7554533999646,365.7554533999646,365.7554533999646,365.7554533999646,365.7554533999646,365.7554533999646,367.4228615000029,[0.16536458333333334],[-0.0703125],[1],[0],[0],[1.6780005999607965],[1],['clear_anger_main'],,,,03S,001,2024-12-03_20h04.09.470,SOLO_PROJECT_EXPERIMENT_NUTAN_KAIN_AU2220019,2024.1.5,None,2024-12-03 20h04.34.216613 +0530,
,,,,42,0,42,0,367.4374394000042,,,,,,,,,,,,,,,,,,,,,,,,,,,,,,,,,,,,,,,,,,,,,,,,,,,,,,,,,,,,,,,367.4249705999973,367.4374394000042,367.4374394000042,367.4374394000042,367.4374394000042,367.4374394000042,367.4374394000042,367.4374394000042,0.0010015000007115304,367.4374394000042,369.02094580000266,[-0.4622395833333333],[0.08072916666666667],[1],[0],[0],[1.594516700017266],[1],['clear_anger'],369.0227383999736,369.0356811999809,0.0008206000202335417,369.0356811999809,369.0356811999809,369.0356811999809,369.0356811999809,369.0356811999809,369.0356811999809,369.0356811999809,370.27270649996353,[0.1640625],[0.1953125],[1],[0],[0],[1.248205500014592],[1],['clear_anger_main'],,,,03S,001,2024-12-03_20h04.09.470,SOLO_PROJECT_EXPERIMENT_NUTAN_KAIN_AU2220019,2024.1.5,None,2024-12-03 20h04.34.216613 +0530,
,,,,43,0,43,0,370.2888609999791,,,,,,,,,,,,,,,,,,,,,,,,,,,,,,,,,,,,,,,,,,,,,,,,,,,,,,,,,,,,,,,370.2764547999832,370.2888609999791,370.2888609999791,370.2888609999791,370.2888609999791,370.2888609999791,370.2888609999791,370.2888609999791,0.0017088999738916755,370.2888609999791,371.9854253999656,[0.2942708333333333],[-0.045572916666666664],[1],[0],[0],[1.7071597999893129],[1],['clear_anger'],371.98722469998756,371.99974499997916,0.0008910000324249268,371.99974499997916,371.99974499997916,371.99974499997916,371.99974499997916,371.99974499997916,371.99974499997916,371.99974499997916,373.20098500000313,[-0.18098958333333334],[-0.15625],[1],[0],[0],[1.2121201999834739],[1],['clear_anger_main'],,,,03S,001,2024-12-03_20h04.09.470,SOLO_PROJECT_EXPERIMENT_NUTAN_KAIN_AU2220019,2024.1.5,None,2024-12-03 20h04.34.216613 +0530,
,,,,44,0,44,0,373.21491629997035,,,,,,,,,,,,,,,,,,,,,,,,,,,,,,,,,,,,,,,,,,,,,,,,,,,,,,,,,,,,,,,373.20294529997045,373.21491629997035,373.21491629997035,373.21491629997035,373.21491629997035,373.21491629997035,373.21491629997035,373.21491629997035,0.0009664000244811177,373.21491629997035,374.416240999999,[0.14713541666666666],[-0.18489583333333334],[1],[0],[0],[1.2119689999963157],[1],['clear_anger'],374.4178400999517,374.4303423999809,0.0007917999755591154,374.4303423999809,374.4303423999809,374.4303423999809,374.4303423999809,374.4303423999809,374.4303423999809,374.4303423999809,375.59854459995404,[0.3828125],[-0.0390625],[1],[0],[0],[1.1792702000238933],[1],['clear_anger_main'],,,,03S,001,2024-12-03_20h04.09.470,SOLO_PROJECT_EXPERIMENT_NUTAN_KAIN_AU2220019,2024.1.5,None,2024-12-03 20h04.34.216613 +0530,
,,,,45,0,45,0,375.61264409997966,,,,,,,,,,,,,,,,,,,,,,,,,,,,,,,,,,,,,,,,,,,,,,,,,,,,,,,,,,,,,,,375.60067099996377,375.61264409997966,375.61264409997966,375.61264409997966,375.61264409997966,375.61264409997966,375.61264409997966,375.61264409997966,0.0011921999976038933,375.61264409997966,376.4140898999758,[0.3828125],[-0.0390625],[1],[0],[0],[0.8117384000215679],[1],['clear_anger'],376.41587159998016,376.4281456999597,0.0006897000130265951,376.4281456999597,376.4281456999597,376.4281456999597,376.4281456999597,376.4281456999597,376.4281456999597,376.4281456999597,377.397135599982,[0.045572916666666664],[-0.20052083333333334],[1],[0],[0],[0.9797864999854937],[1],['clear_anger_main'],,,,03S,001,2024-12-03_20h04.09.470,SOLO_PROJECT_EXPERIMENT_NUTAN_KAIN_AU2220019,2024.1.5,None,2024-12-03 20h04.34.216613 +0530,
,,,,46,0,46,0,377.4108668999979,,,,,,,,,,,,,,,,,,,,,,,,,,,,,,,,,,,,,,,,,,,,,,,,,,,,,,,,,,,,,,,377.3994273999706,377.4108668999979,377.4108668999979,377.4108668999979,377.4108668999979,377.4108668999979,377.4108668999979,377.4108668999979,0.0011514999787323177,377.4108668999979,378.7128620999865,[-0.4830729166666667],[-0.006510416666666667],[1],[0],[0],[1.3116986000095494],[1],['clear_anger'],378.7146661999868,378.72606329998234,0.0008752000285312533,378.72606329998234,378.72606329998234,378.72606329998234,378.72606329998234,378.72606329998234,378.72606329998234,378.72606329998234,379.61132799996994,[0.13020833333333334],[0.2682291666666667],[1],[0],[0],[0.8950809999951161],[1],['clear_anger_main'],,,,03S,001,2024-12-03_20h04.09.470,SOLO_PROJECT_EXPERIMENT_NUTAN_KAIN_AU2220019,2024.1.5,None,2024-12-03 20h04.34.216613 +0530,
,,,,47,0,47,0,379.62531289999606,,,,,,,,,,,,,,,,,,,,,,,,,,,,,,,,,,,,,,,,,,,,,,,,,,,,,,,,,,,,,,,379.6132622999721,379.62531289999606,379.62531289999606,379.62531289999606,379.62531289999606,379.62531289999606,379.62531289999606,379.62531289999606,0.0010668999748304486,379.62531289999606,381.5423563999939,[-0.3919270833333333],[-0.10286458333333333],[1],[0],[0],[1.9276172000099905],[1],['clear_anger'],381.5439703000011,381.5568405999802,0.0007392999832518399,381.5568405999802,381.5568405999802,381.5568405999802,381.5568405999802,381.5568405999802,381.5568405999802,381.5568405999802,383.47397950000595,[0.2109375],[0.35546875],[1],[0],[0],[1.9285886999568902],[1],['clear_anger_main'],,,,03S,001,2024-12-03_20h04.09.470,SOLO_PROJECT_EXPERIMENT_NUTAN_KAIN_AU2220019,2024.1.5,None,2024-12-03 20h04.34.216613 +0530,
,,,,48,0,48,0,383.48843709996436,,,,,,,,,,,,,,,,,,,,,,,,,,,,,,,,,,,,,,,,,,,,,,,,,,,,,,,,,,,,,,,383.47562709997874,383.48843709996436,383.48843709996436,383.48843709996436,383.48843709996436,383.48843709996436,383.48843709996436,383.48843709996436,0.0009637000039219856,383.48843709996436,385.03895709995413,[0.4088541666666667],[-0.14192708333333334],[1],[0],[0],[1.5618365000118501],[1],['clear_anger'],385.04098679998424,385.0531531999586,0.0006682000239379704,385.0531531999586,385.0531531999586,385.0531531999586,385.0531531999586,385.0531531999586,385.0531531999586,385.0531531999586,386.8700150999939,[0.10286458333333333],[0.171875],[1],[0],[0],[1.827586900035385],[1],['clear_anger_main'],,,,03S,001,2024-12-03_20h04.09.470,SOLO_PROJECT_EXPERIMENT_NUTAN_KAIN_AU2220019,2024.1.5,None,2024-12-03 20h04.34.216613 +0530,
,,,,49,0,49,0,386.88537789997645,,,,,,,,,,,,,,,,,,,,,,,,,,,,,,,,,,,,,,,,,,,,,,,,,,,,,,,,,,,,,,,386.87234850000823,386.88537789997645,386.88537789997645,386.88537789997645,386.88537789997645,386.88537789997645,386.88537789997645,386.88537789997645,0.0013555000186897814,386.88537789997645,389.06898409995483,[-0.12760416666666666],[0.12760416666666666],[1],[0],[0],[2.1949983999948017],[1],['clear_anger'],389.070585199981,389.0832010000013,0.0007273000082932413,389.0832010000013,389.0832010000013,389.0832010000013,389.0832010000013,389.0832010000013,389.0832010000013,389.0832010000013,390.79981399996905,[0.5078125],[-0.4153645833333333],[1],[0],[0],[1.7279229999985546],[1],['clear_anger_main'],,,,03S,001,2024-12-03_20h04.09.470,SOLO_PROJECT_EXPERIMENT_NUTAN_KAIN_AU2220019,2024.1.5,None,2024-12-03 20h04.34.216613 +0530,
,,,,,,,,,,,,,,,,,,,,,,,,,,,,,,,,,,,,,,,,,,,,,,,,,,,,,,,,,,,,,,,,,,,,,,,,,,,,,,,,,,,,,,,,,,,,,,,,,,,,,,,,,,,,,390.801107199979,390.81412409996847,393.81338239996694,03S,001,2024-12-03_20h04.09.470,SOLO_PROJECT_EXPERIMENT_NUTAN_KAIN_AU2220019,2024.1.5,None,2024-12-03 20h04.34.216613 +0530,
