loop_1.thisRepN,loop_1.thisTrialN,loop_1.thisN,loop_1.thisIndex,loop_2.thisRepN,loop_2.thisTrialN,loop_2.thisN,loop_2.thisIndex,thisRow.t,notes,guidelines.started,text.started,key_resp.started,guidelines.stopped,key_resp.keys,key_resp.rt,key_resp.duration,find_1.started,text_2.started,find_image_1.started,key_resp_2.started,find_1.stopped,key_resp_2.keys,key_resp_2.rt,key_resp_2.duration,baseline_sa.started,subtle_anger.started,n_1.started,n_2.started,n_3.started,n_4.started,n_5.started,n_6.started,mouse_resp.started,fix_1.started,baseline_sa.stopped,mouse_resp.x,mouse_resp.y,mouse_resp.leftButton,mouse_resp.midButton,mouse_resp.rightButton,mouse_resp.time,mouse_resp.corr,mouse_resp.clicked_name,main_sa.started,subtle_anger_main.started,mouse_resp_4.started,d_1.started,d_2.started,d_3.started,s_1.started,s_2.started,s_3.started,fix_2.started,main_sa.stopped,mouse_resp_4.x,mouse_resp_4.y,mouse_resp_4.leftButton,mouse_resp_4.midButton,mouse_resp_4.rightButton,mouse_resp_4.time,mouse_resp_4.corr,mouse_resp_4.clicked_name,find_3.started,text_4.started,key_resp_4.started,find_image__.started,find_3.stopped,key_resp_4.keys,key_resp_4.rt,key_resp_4.duration,baseline_ca.started,clear_anger.started,n_7.started,n_8.started,n_9.started,n_10.started,n_11.started,n_12.started,mouse_resp_3.started,fix_3.started,baseline_ca.stopped,mouse_resp_3.x,mouse_resp_3.y,mouse_resp_3.leftButton,mouse_resp_3.midButton,mouse_resp_3.rightButton,mouse_resp_3.time,mouse_resp_3.corr,mouse_resp_3.clicked_name,main_ca.started,clear_anger_main.started,mouse_resp_5.started,d_4.started,d_5.started,d_6.started,s_4.started,s_5.started,s_6.started,fix_4.started,main_ca.stopped,mouse_resp_5.x,mouse_resp_5.y,mouse_resp_5.leftButton,mouse_resp_5.midButton,mouse_resp_5.rightButton,mouse_resp_5.time,mouse_resp_5.corr,mouse_resp_5.clicked_name,thank_you.started,thanks.started,thank_you.stopped,participant,session,date,expName,psychopyVersion,frameRate,expStart,
,,,,,,,,,,0.00342700001783669,0.01056389999575913,0.01056389999575913,20.917343400011305,space,20.896370699978434,None,,,,,,,,,,,,,,,,,,,,,,,,,,,,,,,,,,,,,,,,,,,,,,,,,,,,,,,,,,,,,,,,,,,,,,,,,,,,,,,,,,,,,,,,,,,,,,,,05T,001,2024-12-03_20h22.07.941,SOLO_PROJECT_EXPERIMENT_NUTAN_KAIN_AU2220019,2024.1.5,None,2024-12-03 20h22.27.743613 +0530,
,,,,,,,,,,,,,,,,,20.917427000007592,20.97917010000674,20.97917010000674,20.97917010000674,25.07193959999131,space,4.083864799991716,None,,,,,,,,,,,,,,,,,,,,,,,,,,,,,,,,,,,,,,,,,,,,,,,,,,,,,,,,,,,,,,,,,,,,,,,,,,,,,,,,,,,,,,,,05T,001,2024-12-03_20h22.07.941,SOLO_PROJECT_EXPERIMENT_NUTAN_KAIN_AU2220019,2024.1.5,None,2024-12-03 20h22.27.743613 +0530,
0,0,0,0,,,,,25.196557399991434,,,,,,,,,,,,,,,,,25.074322500033304,25.196557399991434,25.196557399991434,25.196557399991434,25.196557399991434,25.196557399991434,25.196557399991434,25.196557399991434,0.0033062000293284655,25.196557399991434,31.401811600022484,[-0.4348958333333333],[-0.2942708333333333],[1],[0],[0],[6.325457800005097],[1],['subtle_anger'],31.405187600001227,31.560740999993868,0.0009340999531559646,31.560740999993868,31.560740999993868,31.560740999993868,31.560740999993868,31.560740999993868,31.560740999993868,31.560740999993868,33.697399399999995,[0.4830729166666667],[0.4153645833333333],[1],[0],[0],[2.2903091999469325],[1],['subtle_anger_main'],,,,,,,,,,,,,,,,,,,,,,,,,,,,,,,,,,,,,,,,,,,,,,,,,,05T,001,2024-12-03_20h22.07.941,SOLO_PROJECT_EXPERIMENT_NUTAN_KAIN_AU2220019,2024.1.5,None,2024-12-03 20h22.27.743613 +0530,
1,0,1,0,,,,,33.71168499998748,,,,,,,,,,,,,,,,,33.700679900008254,33.71168499998748,33.71168499998748,33.71168499998748,33.71168499998748,33.71168499998748,33.71168499998748,33.71168499998748,0.0012400000123307109,33.71168499998748,35.42804410000099,[-0.052083333333333336],[0.21744791666666666],[1],[0],[0],[1.7258960999897681],[1],['subtle_anger'],35.429246600018814,35.442693800025154,0.0005193999968469143,35.442693800025154,35.442693800025154,35.442693800025154,35.442693800025154,35.442693800025154,35.442693800025154,35.442693800025154,40.05888090003282,[0.2421875],[-0.26171875],[1],[0],[0],[4.628089500009082],[1],['subtle_anger_main'],,,,,,,,,,,,,,,,,,,,,,,,,,,,,,,,,,,,,,,,,,,,,,,,,,05T,001,2024-12-03_20h22.07.941,SOLO_PROJECT_EXPERIMENT_NUTAN_KAIN_AU2220019,2024.1.5,None,2024-12-03 20h22.27.743613 +0530,
2,0,2,0,,,,,40.07221250003204,,,,,,,,,,,,,,,,,40.06147920002695,40.07221250003204,40.07221250003204,40.07221250003204,40.07221250003204,40.07221250003204,40.07221250003204,40.07221250003204,0.0012027999619022012,40.07221250003204,42.65392020001309,[0.4192708333333333],[0.30078125],[1],[0],[0],[2.5911523000104353],[1],['subtle_anger'],42.655301599996164,42.668938099988736,0.0006053000106476247,42.668938099988736,42.668938099988736,42.668938099988736,42.668938099988736,42.668938099988736,42.668938099988736,42.668938099988736,45.18676840001717,[0.2265625],[-0.2916666666666667],[1],[0],[0],[2.530170399986673],[1],['subtle_anger_main'],,,,,,,,,,,,,,,,,,,,,,,,,,,,,,,,,,,,,,,,,,,,,,,,,,05T,001,2024-12-03_20h22.07.941,SOLO_PROJECT_EXPERIMENT_NUTAN_KAIN_AU2220019,2024.1.5,None,2024-12-03 20h22.27.743613 +0530,
3,0,3,0,,,,,45.20119920000434,,,,,,,,,,,,,,,,,45.189390400017146,45.20119920000434,45.20119920000434,45.20119920000434,45.20119920000434,45.20119920000434,45.20119920000434,45.20119920000434,0.0015610000118613243,45.20119920000434,46.93784060003236,[0.005208333333333333],[0.20833333333333334],[1],[0],[0],[1.74617080000462],[1],['subtle_anger'],46.94114469998749,46.956671399995685,0.0014726999797858298,46.956671399995685,46.956671399995685,46.956671399995685,46.956671399995685,46.956671399995685,46.956671399995685,46.956671399995685,48.61530090001179,[-0.11848958333333333],[0.18880208333333334],[1],[0],[0],[1.671851199993398],[1],['subtle_anger_main'],,,,,,,,,,,,,,,,,,,,,,,,,,,,,,,,,,,,,,,,,,,,,,,,,,05T,001,2024-12-03_20h22.07.941,SOLO_PROJECT_EXPERIMENT_NUTAN_KAIN_AU2220019,2024.1.5,None,2024-12-03 20h22.27.743613 +0530,
4,0,4,0,,,,,48.62999009998748,,,,,,,,,,,,,,,,,48.617443400027696,48.62999009998748,48.62999009998748,48.62999009998748,48.62999009998748,48.62999009998748,48.62999009998748,48.62999009998748,0.0012508000363595784,48.62999009998748,51.21382589999121,[-0.059895833333333336],[-0.4283854166666667],[1],[0],[0],[2.5945020000217482],[1],['subtle_anger'],51.21542369999224,51.22708879999118,0.0006466000340878963,51.22708879999118,51.22708879999118,51.22708879999118,51.22708879999118,51.22708879999118,51.22708879999118,51.22708879999118,54.526329900021665,[-0.25390625],[0.3815104166666667],[1],[0],[0],[3.3095954000018537],[1],['subtle_anger_main'],,,,,,,,,,,,,,,,,,,,,,,,,,,,,,,,,,,,,,,,,,,,,,,,,,05T,001,2024-12-03_20h22.07.941,SOLO_PROJECT_EXPERIMENT_NUTAN_KAIN_AU2220019,2024.1.5,None,2024-12-03 20h22.27.743613 +0530,
5,0,5,0,,,,,54.5404930000077,,,,,,,,,,,,,,,,,54.52861390000908,54.5404930000077,54.5404930000077,54.5404930000077,54.5404930000077,54.5404930000077,54.5404930000077,54.5404930000077,0.0012008000048808753,54.5404930000077,56.742149300000165,[-0.17447916666666666],[0.14583333333333334],[1],[0],[0],[2.211954300000798],[1],['subtle_anger'],56.743452200025786,56.75527500000317,0.0005497999954968691,56.75527500000317,56.75527500000317,56.75527500000317,56.75527500000317,56.75527500000317,56.75527500000317,56.75527500000317,59.22202789998846,[-0.3958333333333333],[-0.08854166666666667],[1],[0],[0],[2.477126899990253],[1],['subtle_anger_main'],,,,,,,,,,,,,,,,,,,,,,,,,,,,,,,,,,,,,,,,,,,,,,,,,,05T,001,2024-12-03_20h22.07.941,SOLO_PROJECT_EXPERIMENT_NUTAN_KAIN_AU2220019,2024.1.5,None,2024-12-03 20h22.27.743613 +0530,
6,0,6,0,,,,,59.23695589997806,,,,,,,,,,,,,,,,,59.22521730000153,59.23695589997806,59.23695589997806,59.23695589997806,59.23695589997806,59.23695589997806,59.23695589997806,59.23695589997806,0.0014995000092312694,59.23695589997806,61.48663320002379,[-0.3502604166666667],[-0.17838541666666666],[1],[0],[0],[2.259664300014265],[1],['subtle_anger'],61.48868880001828,61.50080189999426,0.0008428000146523118,61.50080189999426,61.50080189999426,61.50080189999426,61.50080189999426,61.50080189999426,61.50080189999426,61.50080189999426,63.50214529997902,[0.3684895833333333],[-0.13151041666666666],[1],[0],[0],[2.0118863999960013],[1],['subtle_anger_main'],,,,,,,,,,,,,,,,,,,,,,,,,,,,,,,,,,,,,,,,,,,,,,,,,,05T,001,2024-12-03_20h22.07.941,SOLO_PROJECT_EXPERIMENT_NUTAN_KAIN_AU2220019,2024.1.5,None,2024-12-03 20h22.27.743613 +0530,
7,0,7,0,,,,,63.51531370001612,,,,,,,,,,,,,,,,,63.504319500003476,63.51531370001612,63.51531370001612,63.51531370001612,63.51531370001612,63.51531370001612,63.51531370001612,63.51531370001612,0.0013232000055722892,63.51531370001612,65.76612049998948,[-0.2747395833333333],[0.2825520833333333],[1],[0],[0],[2.2601551999687217],[1],['subtle_anger'],65.76795680000214,65.77992230001837,0.0008178999996744096,65.77992230001837,65.77992230001837,65.77992230001837,65.77992230001837,65.77992230001837,65.77992230001837,65.77992230001837,67.96462610003073,[-0.07291666666666667],[-0.13541666666666666],[1],[0],[0],[2.1951218000031076],[1],['subtle_anger_main'],,,,,,,,,,,,,,,,,,,,,,,,,,,,,,,,,,,,,,,,,,,,,,,,,,05T,001,2024-12-03_20h22.07.941,SOLO_PROJECT_EXPERIMENT_NUTAN_KAIN_AU2220019,2024.1.5,None,2024-12-03 20h22.27.743613 +0530,
8,0,8,0,,,,,67.97771130001638,,,,,,,,,,,,,,,,,67.96675279998453,67.97771130001638,67.97771130001638,67.97771130001638,67.97771130001638,67.97771130001638,67.97771130001638,67.97771130001638,0.001173800032120198,67.97771130001638,69.56153690000065,[-0.03125],[-0.11848958333333333],[1],[0],[0],[1.5932748999912292],[1],['subtle_anger'],69.56334819999756,69.57628859998658,0.0008166000479832292,69.57628859998658,69.57628859998658,69.57628859998658,69.57628859998658,69.57628859998658,69.57628859998658,69.57628859998658,71.5762199999881,[-0.3997395833333333],[-0.3072916666666667],[1],[0],[0],[2.0114144000108354],[1],['subtle_anger_main'],,,,,,,,,,,,,,,,,,,,,,,,,,,,,,,,,,,,,,,,,,,,,,,,,,05T,001,2024-12-03_20h22.07.941,SOLO_PROJECT_EXPERIMENT_NUTAN_KAIN_AU2220019,2024.1.5,None,2024-12-03 20h22.27.743613 +0530,
9,0,9,0,,,,,71.59070110000903,,,,,,,,,,,,,,,,,71.57840250001755,71.59070110000903,71.59070110000903,71.59070110000903,71.59070110000903,71.59070110000903,71.59070110000903,71.59070110000903,0.001202200015541166,71.59070110000903,74.2392991000088,[0.19140625],[0.3697916666666667],[1],[0],[0],[2.6594773000106215],[1],['subtle_anger'],74.24048149998998,74.25513469998259,0.0005295000155456364,74.25513469998259,74.25513469998259,74.25513469998259,74.25513469998259,74.25513469998259,74.25513469998259,74.25513469998259,76.62122079997789,[0.4908854166666667],[-0.2552083333333333],[1],[0],[0],[2.379577700048685],[1],['subtle_anger_main'],,,,,,,,,,,,,,,,,,,,,,,,,,,,,,,,,,,,,,,,,,,,,,,,,,05T,001,2024-12-03_20h22.07.941,SOLO_PROJECT_EXPERIMENT_NUTAN_KAIN_AU2220019,2024.1.5,None,2024-12-03 20h22.27.743613 +0530,
10,0,10,0,,,,,76.63553879997926,,,,,,,,,,,,,,,,,76.6232906000223,76.63553879997926,76.63553879997926,76.63553879997926,76.63553879997926,76.63553879997926,76.63553879997926,76.63553879997926,0.0011736000305972993,76.63553879997926,78.35407200001646,[0.23828125],[0.2838541666666667],[1],[0],[0],[1.729169300000649],[1],['subtle_anger'],78.35584610002115,78.36756660003448,0.0005970000056549907,78.36756660003448,78.36756660003448,78.36756660003448,78.36756660003448,78.36756660003448,78.36756660003448,78.36756660003448,80.3665474000154,[-0.09895833333333333],[0.17838541666666666],[1],[0],[0],[2.0095492000109516],[1],['subtle_anger_main'],,,,,,,,,,,,,,,,,,,,,,,,,,,,,,,,,,,,,,,,,,,,,,,,,,05T,001,2024-12-03_20h22.07.941,SOLO_PROJECT_EXPERIMENT_NUTAN_KAIN_AU2220019,2024.1.5,None,2024-12-03 20h22.27.743613 +0530,
11,0,11,0,,,,,80.38247599999886,,,,,,,,,,,,,,,,,80.368420600018,80.38247599999886,80.38247599999886,80.38247599999886,80.38247599999886,80.38247599999886,80.38247599999886,80.38247599999886,0.0010340000153519213,80.38247599999886,81.76695670001209,[0.09375],[0.10807291666666667],[1],[0],[0],[1.3971230000024661],[1],['subtle_anger'],81.76843050000025,81.78115950000938,0.0007356000132858753,81.78115950000938,81.78115950000938,81.78115950000938,81.78115950000938,81.78115950000938,81.78115950000938,81.78115950000938,83.33116760000121,[0.08072916666666667],[0.15104166666666666],[1],[0],[0],[1.5611579000251368],[1],['subtle_anger_main'],,,,,,,,,,,,,,,,,,,,,,,,,,,,,,,,,,,,,,,,,,,,,,,,,,05T,001,2024-12-03_20h22.07.941,SOLO_PROJECT_EXPERIMENT_NUTAN_KAIN_AU2220019,2024.1.5,None,2024-12-03 20h22.27.743613 +0530,
12,0,12,0,,,,,83.34646839997731,,,,,,,,,,,,,,,,,83.33381229999941,83.34646839997731,83.34646839997731,83.34646839997731,83.34646839997731,83.34646839997731,83.34646839997731,83.34646839997731,0.0010936000035144389,83.34646839997731,84.89646940003149,[0.11458333333333333],[0.06510416666666667],[1],[0],[0],[1.5613033000263385],[1],['subtle_anger'],84.89789480000036,84.91142249997938,0.0006503000040538609,84.91142249997938,84.91142249997938,84.91142249997938,84.91142249997938,84.91142249997938,84.91142249997938,84.91142249997938,86.72816830000374,[0.1640625],[-0.2682291666666667],[1],[0],[0],[1.8289519000099972],[1],['subtle_anger_main'],,,,,,,,,,,,,,,,,,,,,,,,,,,,,,,,,,,,,,,,,,,,,,,,,,05T,001,2024-12-03_20h22.07.941,SOLO_PROJECT_EXPERIMENT_NUTAN_KAIN_AU2220019,2024.1.5,None,2024-12-03 20h22.27.743613 +0530,
13,0,13,0,,,,,86.74291060003452,,,,,,,,,,,,,,,,,86.73046460002661,86.74291060003452,86.74291060003452,86.74291060003452,86.74291060003452,86.74291060003452,86.74291060003452,86.74291060003452,0.0012025999603793025,86.74291060003452,89.31068049999885,[-0.19791666666666666],[0.3020833333333333],[1],[0],[0],[2.5785712000215426],[1],['subtle_anger'],89.31237930001225,89.3240246999776,0.000742600008379668,89.3240246999776,89.3240246999776,89.3240246999776,89.3240246999776,89.3240246999776,89.3240246999776,89.3240246999776,91.22441379999509,[0.020833333333333332],[-0.21223958333333334],[1],[0],[0],[1.9106345999753103],[1],['subtle_anger_main'],,,,,,,,,,,,,,,,,,,,,,,,,,,,,,,,,,,,,,,,,,,,,,,,,,05T,001,2024-12-03_20h22.07.941,SOLO_PROJECT_EXPERIMENT_NUTAN_KAIN_AU2220019,2024.1.5,None,2024-12-03 20h22.27.743613 +0530,
14,0,14,0,,,,,91.23809190001339,,,,,,,,,,,,,,,,,91.22688430000562,91.23809190001339,91.23809190001339,91.23809190001339,91.23809190001339,91.23809190001339,91.23809190001339,91.23809190001339,0.001644000003580004,91.23809190001339,93.83997470000759,[-0.3151041666666667],[0.140625],[1],[0],[0],[2.6112058000289835],[1],['subtle_anger'],93.84217730001546,93.85329350002576,0.0009024000028148293,93.85329350002576,93.85329350002576,93.85329350002576,93.85329350002576,93.85329350002576,93.85329350002576,93.85329350002576,95.38670819997787,[0.22526041666666666],[-0.171875],[1],[0],[0],[1.5428198999725282],[1],['subtle_anger_main'],,,,,,,,,,,,,,,,,,,,,,,,,,,,,,,,,,,,,,,,,,,,,,,,,,05T,001,2024-12-03_20h22.07.941,SOLO_PROJECT_EXPERIMENT_NUTAN_KAIN_AU2220019,2024.1.5,None,2024-12-03 20h22.27.743613 +0530,
15,0,15,0,,,,,95.40076129999943,,,,,,,,,,,,,,,,,95.38964680000208,95.40076129999943,95.40076129999943,95.40076129999943,95.40076129999943,95.40076129999943,95.40076129999943,95.40076129999943,0.0015575999859720469,95.40076129999943,101.34704090002924,[-0.4869791666666667],[-0.3229166666666667],[1],[0],[0],[5.955734800023492],[1],['subtle_anger'],101.34825719997752,101.36147709999932,0.0004855000297538936,101.36147709999932,101.36147709999932,101.36147709999932,101.36147709999932,101.36147709999932,101.36147709999932,101.36147709999932,103.46277139999438,[0.37890625],[0.020833333333333332],[1],[0],[0],[2.113029300002381],[1],['subtle_anger_main'],,,,,,,,,,,,,,,,,,,,,,,,,,,,,,,,,,,,,,,,,,,,,,,,,,05T,001,2024-12-03_20h22.07.941,SOLO_PROJECT_EXPERIMENT_NUTAN_KAIN_AU2220019,2024.1.5,None,2024-12-03 20h22.27.743613 +0530,
16,0,16,0,,,,,103.47920030000387,,,,,,,,,,,,,,,,,103.46590609999839,103.47920030000387,103.47920030000387,103.47920030000387,103.47920030000387,103.47920030000387,103.47920030000387,103.47920030000387,0.0017798999906517565,103.47920030000387,105.14367820002371,[0.3919270833333333],[-0.38671875],[1],[0],[0],[1.6757130000041798],[1],['subtle_anger'],105.14552880002884,105.15759830002207,0.0008200000156648457,105.15759830002207,105.15759830002207,105.15759830002207,105.15759830002207,105.15759830002207,105.15759830002207,105.15759830002207,107.09165740001481,[0.07942708333333333],[0.21354166666666666],[1],[0],[0],[1.9445640000049025],[1],['subtle_anger_main'],,,,,,,,,,,,,,,,,,,,,,,,,,,,,,,,,,,,,,,,,,,,,,,,,,05T,001,2024-12-03_20h22.07.941,SOLO_PROJECT_EXPERIMENT_NUTAN_KAIN_AU2220019,2024.1.5,None,2024-12-03 20h22.27.743613 +0530,
17,0,17,0,,,,,107.10619459999725,,,,,,,,,,,,,,,,,107.09360279998509,107.10619459999725,107.10619459999725,107.10619459999725,107.10619459999725,107.10619459999725,107.10619459999725,107.10619459999725,0.0008877000072970986,107.10619459999725,109.4086413999903,[-0.24609375],[0.13151041666666666],[1],[0],[0],[2.3134209999698214],[1],['subtle_anger'],109.41115280002123,109.42345719999867,0.0010445999796502292,109.42345719999867,109.42345719999867,109.42345719999867,109.42345719999867,109.42345719999867,109.42345719999867,109.42345719999867,111.38691090000793,[-0.10677083333333333],[0.05078125],[1],[0],[0],[1.9739964000182226],[1],['subtle_anger_main'],,,,,,,,,,,,,,,,,,,,,,,,,,,,,,,,,,,,,,,,,,,,,,,,,,05T,001,2024-12-03_20h22.07.941,SOLO_PROJECT_EXPERIMENT_NUTAN_KAIN_AU2220019,2024.1.5,None,2024-12-03 20h22.27.743613 +0530,
18,0,18,0,,,,,111.40127969998866,,,,,,,,,,,,,,,,,111.3891301000258,111.40127969998866,111.40127969998866,111.40127969998866,111.40127969998866,111.40127969998866,111.40127969998866,111.40127969998866,0.0012003000010736287,111.40127969998866,113.11893050000072,[-0.3294270833333333],[-0.18098958333333334],[1],[0],[0],[1.7282002000138164],[1],['subtle_anger'],113.12071049999213,113.13342989998637,0.000686399987898767,113.13342989998637,113.13342989998637,113.13342989998637,113.13342989998637,113.13342989998637,113.13342989998637,113.13342989998637,114.8335487000295,[-0.18098958333333334],[-0.08723958333333333],[1],[0],[0],[1.7116236999863759],[1],['subtle_anger_main'],,,,,,,,,,,,,,,,,,,,,,,,,,,,,,,,,,,,,,,,,,,,,,,,,,05T,001,2024-12-03_20h22.07.941,SOLO_PROJECT_EXPERIMENT_NUTAN_KAIN_AU2220019,2024.1.5,None,2024-12-03 20h22.27.743613 +0530,
19,0,19,0,,,,,114.84791040001437,,,,,,,,,,,,,,,,,114.83499609999126,114.84791040001437,114.84791040001437,114.84791040001437,114.84791040001437,114.84791040001437,114.84791040001437,114.84791040001437,0.000722800032235682,114.84791040001437,116.48204730002908,[-0.3098958333333333],[-0.22395833333333334],[1],[0],[0],[1.645820299978368],[1],['subtle_anger'],116.48381380003411,116.49667259998387,0.0009025000035762787,116.49667259998387,116.49667259998387,116.49667259998387,116.49667259998387,116.49667259998387,116.49667259998387,116.49667259998387,118.49655779998284,[0.46484375],[0.3229166666666667],[1],[0],[0],[2.011159099987708],[1],['subtle_anger_main'],,,,,,,,,,,,,,,,,,,,,,,,,,,,,,,,,,,,,,,,,,,,,,,,,,05T,001,2024-12-03_20h22.07.941,SOLO_PROJECT_EXPERIMENT_NUTAN_KAIN_AU2220019,2024.1.5,None,2024-12-03 20h22.27.743613 +0530,
20,0,20,0,,,,,118.51155659998767,,,,,,,,,,,,,,,,,118.49846640002215,118.51155659998767,118.51155659998767,118.51155659998767,118.51155659998767,118.51155659998767,118.51155659998767,118.51155659998767,0.0009966000216081738,118.51155659998767,120.29517460003262,[-0.140625],[-0.3268229166666667],[1],[0],[0],[1.7952638000133447],[1],['subtle_anger'],120.29711400001543,120.30958010000177,0.0011687999940477312,120.30958010000177,120.30958010000177,120.30958010000177,120.30958010000177,120.30958010000177,120.30958010000177,120.30958010000177,122.07735680002952,[0.17447916666666666],[-0.29296875],[1],[0],[0],[1.7783308000070974],[1],['subtle_anger_main'],,,,,,,,,,,,,,,,,,,,,,,,,,,,,,,,,,,,,,,,,,,,,,,,,,05T,001,2024-12-03_20h22.07.941,SOLO_PROJECT_EXPERIMENT_NUTAN_KAIN_AU2220019,2024.1.5,None,2024-12-03 20h22.27.743613 +0530,
21,0,21,0,,,,,122.09153640002478,,,,,,,,,,,,,,,,,122.08038749999832,122.09153640002478,122.09153640002478,122.09153640002478,122.09153640002478,122.09153640002478,122.09153640002478,122.09153640002478,0.0014038000372238457,122.09153640002478,124.10889149998548,[-0.4440104166666667],[-0.18880208333333334],[1],[0],[0],[2.026776399987284],[1],['subtle_anger'],124.11082430003444,124.12237689999165,0.0008905000286176801,124.12237689999165,124.12237689999165,124.12237689999165,124.12237689999165,124.12237689999165,124.12237689999165,124.12237689999165,125.95898009999655,[-0.53125],[0.359375],[1],[0],[0],[1.8465504999621771],[1],['subtle_anger_main'],,,,,,,,,,,,,,,,,,,,,,,,,,,,,,,,,,,,,,,,,,,,,,,,,,05T,001,2024-12-03_20h22.07.941,SOLO_PROJECT_EXPERIMENT_NUTAN_KAIN_AU2220019,2024.1.5,None,2024-12-03 20h22.27.743613 +0530,
22,0,22,0,,,,,125.97135010000784,,,,,,,,,,,,,,,,,125.96099069999764,125.97135010000784,125.97135010000784,125.97135010000784,125.97135010000784,125.97135010000784,125.97135010000784,125.97135010000784,0.0011410000151954591,125.97135010000784,127.92066840000916,[0.46875],[-0.3515625],[1],[0],[0],[1.9583406000165269],[1],['subtle_anger'],127.92187969997758,127.93543170002522,0.000590000010561198,127.93543170002522,127.93543170002522,127.93543170002522,127.93543170002522,127.93543170002522,127.93543170002522,127.93543170002522,130.0187511999975,[0.49609375],[0.2526041666666667],[1],[0],[0],[2.095755000016652],[1],['subtle_anger_main'],,,,,,,,,,,,,,,,,,,,,,,,,,,,,,,,,,,,,,,,,,,,,,,,,,05T,001,2024-12-03_20h22.07.941,SOLO_PROJECT_EXPERIMENT_NUTAN_KAIN_AU2220019,2024.1.5,None,2024-12-03 20h22.27.743613 +0530,
23,0,23,0,,,,,130.03363369998988,,,,,,,,,,,,,,,,,130.02051040000515,130.03363369998988,130.03363369998988,130.03363369998988,130.03363369998988,130.03363369998988,130.03363369998988,130.03363369998988,0.0009999999892897904,130.03363369998988,131.8348202999914,[-0.3424479166666667],[-0.3098958333333333],[1],[0],[0],[1.8128918999573216],[1],['subtle_anger'],131.83640670002205,131.84849150001537,0.0006459999713115394,131.84849150001537,131.84849150001537,131.84849150001537,131.84849150001537,131.84849150001537,131.84849150001537,131.84849150001537,133.2996576000005,[-0.3216145833333333],[0.2265625],[1],[0],[0],[1.4619732000282966],[1],['subtle_anger_main'],,,,,,,,,,,,,,,,,,,,,,,,,,,,,,,,,,,,,,,,,,,,,,,,,,05T,001,2024-12-03_20h22.07.941,SOLO_PROJECT_EXPERIMENT_NUTAN_KAIN_AU2220019,2024.1.5,None,2024-12-03 20h22.27.743613 +0530,
24,0,24,0,,,,,133.31351000000723,,,,,,,,,,,,,,,,,133.30150559998583,133.31351000000723,133.31351000000723,133.31351000000723,133.31351000000723,133.31351000000723,133.31351000000723,133.31351000000723,0.0009679999784566462,133.31351000000723,134.98223600001074,[0.06510416666666667],[0.12369791666666667],[1],[0],[0],[1.6790157000068575],[1],['subtle_anger'],134.98591139999917,134.9992282000021,0.0015631999704055488,134.9992282000021,134.9992282000021,134.9992282000021,134.9992282000021,134.9992282000021,134.9992282000021,134.9992282000021,137.5119115000125,[0.13802083333333334],[-0.3203125],[1],[0],[0],[2.5236965999938548],[1],['subtle_anger_main'],,,,,,,,,,,,,,,,,,,,,,,,,,,,,,,,,,,,,,,,,,,,,,,,,,05T,001,2024-12-03_20h22.07.941,SOLO_PROJECT_EXPERIMENT_NUTAN_KAIN_AU2220019,2024.1.5,None,2024-12-03 20h22.27.743613 +0530,
25,0,25,0,,,,,137.52602669998305,,,,,,,,,,,,,,,,,137.51404540002113,137.52602669998305,137.52602669998305,137.52602669998305,137.52602669998305,137.52602669998305,137.52602669998305,137.52602669998305,0.001138899999205023,137.52602669998305,139.70936809998238,[0.2630208333333333],[-0.10677083333333333],[1],[0],[0],[2.193823700014036],[1],['subtle_anger'],139.7112705000327,139.72429929999635,0.0009261000086553395,139.72429929999635,139.72429929999635,139.72429929999635,139.72429929999635,139.72429929999635,139.72429929999635,139.72429929999635,142.92617570003495,[-0.3541666666666667],[-0.4401041666666667],[1],[0],[0],[3.2127564000547864],[1],['subtle_anger_main'],,,,,,,,,,,,,,,,,,,,,,,,,,,,,,,,,,,,,,,,,,,,,,,,,,05T,001,2024-12-03_20h22.07.941,SOLO_PROJECT_EXPERIMENT_NUTAN_KAIN_AU2220019,2024.1.5,None,2024-12-03 20h22.27.743613 +0530,
26,0,26,0,,,,,142.9438781000208,,,,,,,,,,,,,,,,,142.92936780001037,142.9438781000208,142.9438781000208,142.9438781000208,142.9438781000208,142.9438781000208,142.9438781000208,142.9438781000208,0.0018254999886266887,142.9438781000208,145.12176379997982,[0.24869791666666666],[0.3958333333333333],[1],[0],[0],[2.1903366000042297],[1],['subtle_anger'],145.123725500016,145.13521360000595,0.0007655000081285834,145.13521360000595,145.13521360000595,145.13521360000595,145.13521360000595,145.13521360000595,145.13521360000595,145.13521360000595,147.7338511000271,[0.3359375],[0.359375],[1],[0],[0],[2.6087291999720037],[1],['subtle_anger_main'],,,,,,,,,,,,,,,,,,,,,,,,,,,,,,,,,,,,,,,,,,,,,,,,,,05T,001,2024-12-03_20h22.07.941,SOLO_PROJECT_EXPERIMENT_NUTAN_KAIN_AU2220019,2024.1.5,None,2024-12-03 20h22.27.743613 +0530,
27,0,27,0,,,,,147.74907620000886,,,,,,,,,,,,,,,,,147.73551040003076,147.74907620000886,147.74907620000886,147.74907620000886,147.74907620000886,147.74907620000886,147.74907620000886,147.74907620000886,0.0009542999905534089,147.74907620000886,150.13319810002577,[-0.31640625],[-0.0859375],[1],[0],[0],[2.396275000006426],[1],['subtle_anger'],150.1351645999821,150.14755960000912,0.0007956000044941902,150.14755960000912,150.14755960000912,150.14755960000912,150.14755960000912,150.14755960000912,150.14755960000912,150.14755960000912,152.74906459997874,[-0.19401041666666666],[-0.3450520833333333],[1],[0],[0],[2.6123114000074565],[1],['subtle_anger_main'],,,,,,,,,,,,,,,,,,,,,,,,,,,,,,,,,,,,,,,,,,,,,,,,,,05T,001,2024-12-03_20h22.07.941,SOLO_PROJECT_EXPERIMENT_NUTAN_KAIN_AU2220019,2024.1.5,None,2024-12-03 20h22.27.743613 +0530,
28,0,28,0,,,,,152.76307230000384,,,,,,,,,,,,,,,,,152.75152490002802,152.76307230000384,152.76307230000384,152.76307230000384,152.76307230000384,152.76307230000384,152.76307230000384,152.76307230000384,0.0013652000343427062,152.76307230000384,154.2784280999913,[0.053385416666666664],[0.3515625],[1],[0],[0],[1.52511449996382],[1],['subtle_anger'],154.2801092999871,154.29298100003507,0.0007760999724268913,154.29298100003507,154.29298100003507,154.29298100003507,154.29298100003507,154.29298100003507,154.29298100003507,154.29298100003507,156.4427061000024,[0.45703125],[-0.28125],[1],[0],[0],[2.1612254999927245],[1],['subtle_anger_main'],,,,,,,,,,,,,,,,,,,,,,,,,,,,,,,,,,,,,,,,,,,,,,,,,,05T,001,2024-12-03_20h22.07.941,SOLO_PROJECT_EXPERIMENT_NUTAN_KAIN_AU2220019,2024.1.5,None,2024-12-03 20h22.27.743613 +0530,
29,0,29,0,,,,,156.4575949999853,,,,,,,,,,,,,,,,,156.44429399998626,156.4575949999853,156.4575949999853,156.4575949999853,156.4575949999853,156.4575949999853,156.4575949999853,156.4575949999853,0.0007711999933235347,156.4575949999853,158.27457700000377,[0.3463541666666667],[-0.08854166666666667],[1],[0],[0],[1.8290037999977358],[1],['subtle_anger'],158.27605250000488,158.2886423000018,0.0005837000207975507,158.2886423000018,158.2886423000018,158.2886423000018,158.2886423000018,158.2886423000018,158.2886423000018,158.2886423000018,159.5059261000133,[0.19401041666666666],[-0.061197916666666664],[1],[0],[0],[1.2287436000187881],[1],['subtle_anger_main'],,,,,,,,,,,,,,,,,,,,,,,,,,,,,,,,,,,,,,,,,,,,,,,,,,05T,001,2024-12-03_20h22.07.941,SOLO_PROJECT_EXPERIMENT_NUTAN_KAIN_AU2220019,2024.1.5,None,2024-12-03 20h22.27.743613 +0530,
30,0,30,0,,,,,159.52125160000287,,,,,,,,,,,,,,,,,159.50746049999725,159.52125160000287,159.52125160000287,159.52125160000287,159.52125160000287,159.52125160000287,159.52125160000287,159.52125160000287,0.0007097000489011407,159.52125160000287,161.3392605999834,[-0.3463541666666667],[-0.4075520833333333],[1],[0],[0],[1.8304576000082307],[1],['subtle_anger'],161.3419300999958,161.3531523999991,0.0010160999954678118,161.3531523999991,161.3531523999991,161.3531523999991,161.3531523999991,161.3531523999991,161.3531523999991,161.3531523999991,162.93700129998615,[-0.16145833333333334],[-0.08984375],[1],[0],[0],[1.5934184999787249],[1],['subtle_anger_main'],,,,,,,,,,,,,,,,,,,,,,,,,,,,,,,,,,,,,,,,,,,,,,,,,,05T,001,2024-12-03_20h22.07.941,SOLO_PROJECT_EXPERIMENT_NUTAN_KAIN_AU2220019,2024.1.5,None,2024-12-03 20h22.27.743613 +0530,
31,0,31,0,,,,,162.9511157000088,,,,,,,,,,,,,,,,,162.9389551000204,162.9511157000088,162.9511157000088,162.9511157000088,162.9511157000088,162.9511157000088,162.9511157000088,162.9511157000088,0.0010869000107049942,162.9511157000088,164.40173380001215,[0.02734375],[-0.02734375],[1],[0],[0],[1.4612205000012182],[1],['subtle_anger'],164.40331110003171,164.41627370001515,0.0005212999531067908,164.41627370001515,164.41627370001515,164.41627370001515,164.41627370001515,164.41627370001515,164.41627370001515,164.41627370001515,165.98399779998,[-0.2513020833333333],[-0.0026041666666666665],[1],[0],[0],[1.579457400017418],[1],['subtle_anger_main'],,,,,,,,,,,,,,,,,,,,,,,,,,,,,,,,,,,,,,,,,,,,,,,,,,05T,001,2024-12-03_20h22.07.941,SOLO_PROJECT_EXPERIMENT_NUTAN_KAIN_AU2220019,2024.1.5,None,2024-12-03 20h22.27.743613 +0530,
32,0,32,0,,,,,165.99952080001822,,,,,,,,,,,,,,,,,165.98654010001337,165.99952080001822,165.99952080001822,165.99952080001822,165.99952080001822,165.99952080001822,165.99952080001822,165.99952080001822,0.0014195000403560698,165.99952080001822,167.28290729998844,[-0.44921875],[-0.1953125],[1],[0],[0],[1.2946503999992274],[1],['subtle_anger'],167.28445390000707,167.29669240000658,0.0006848000339232385,167.29669240000658,167.29669240000658,167.29669240000658,167.29669240000658,167.29669240000658,167.29669240000658,167.29669240000658,169.5643790999893,[-0.4661458333333333],[-0.4114583333333333],[1],[0],[0],[2.2785123999929056],[1],['subtle_anger_main'],,,,,,,,,,,,,,,,,,,,,,,,,,,,,,,,,,,,,,,,,,,,,,,,,,05T,001,2024-12-03_20h22.07.941,SOLO_PROJECT_EXPERIMENT_NUTAN_KAIN_AU2220019,2024.1.5,None,2024-12-03 20h22.27.743613 +0530,
33,0,33,0,,,,,169.57811430003494,,,,,,,,,,,,,,,,,169.56688120000763,169.57811430003494,169.57811430003494,169.57811430003494,169.57811430003494,169.57811430003494,169.57811430003494,169.57811430003494,0.001235600037034601,169.57811430003494,171.21475510002347,[0.3971354166666667],[-0.2591145833333333],[1],[0],[0],[1.6459523999947123],[1],['subtle_anger'],171.21707210002933,171.22939470002893,0.0010163999977521598,171.22939470002893,171.22939470002893,171.22939470002893,171.22939470002893,171.22939470002893,171.22939470002893,171.22939470002893,173.62727140000788,[-0.15234375],[0.15885416666666666],[1],[0],[0],[2.4081319000106305],[],[],,,,,,,,,,,,,,,,,,,,,,,,,,,,,,,,,,,,,,,,,,,,,,,,,,05T,001,2024-12-03_20h22.07.941,SOLO_PROJECT_EXPERIMENT_NUTAN_KAIN_AU2220019,2024.1.5,None,2024-12-03 20h22.27.743613 +0530,
34,0,34,0,,,,,173.64087350002956,,,,,,,,,,,,,,,,,173.62940019997768,173.64087350002956,173.64087350002956,173.64087350002956,173.64087350002956,173.64087350002956,173.64087350002956,173.64087350002956,0.001001099997665733,173.64087350002956,174.94275749998633,[0.29296875],[-0.10286458333333333],[1],[0],[0],[1.3117231000214815],[1],['subtle_anger'],174.94433850003406,174.95565339998575,0.001213699986692518,174.95565339998575,174.95565339998575,174.95565339998575,174.95565339998575,174.95565339998575,174.95565339998575,174.95565339998575,176.02399800001876,[-0.13932291666666666],[-0.014322916666666666],[1],[0],[0],[1.0777385999681428],[1],['subtle_anger_main'],,,,,,,,,,,,,,,,,,,,,,,,,,,,,,,,,,,,,,,,,,,,,,,,,,05T,001,2024-12-03_20h22.07.941,SOLO_PROJECT_EXPERIMENT_NUTAN_KAIN_AU2220019,2024.1.5,None,2024-12-03 20h22.27.743613 +0530,
35,0,35,0,,,,,176.03818380000303,,,,,,,,,,,,,,,,,176.0263791999896,176.03818380000303,176.03818380000303,176.03818380000303,176.03818380000303,176.03818380000303,176.03818380000303,176.03818380000303,0.0010251999483443797,176.03818380000303,178.27274069999112,[0.4609375],[0.2799479166666667],[1],[0],[0],[2.24487280001631],[1],['subtle_anger'],178.2743363000336,178.28646299999673,0.0006223999662324786,178.28646299999673,178.28646299999673,178.28646299999673,178.28646299999673,178.28646299999673,178.28646299999673,178.28646299999673,180.96837700001197,[0.16145833333333334],[0.3567708333333333],[1],[0],[0],[2.6927438999991864],[1],['subtle_anger_main'],,,,,,,,,,,,,,,,,,,,,,,,,,,,,,,,,,,,,,,,,,,,,,,,,,05T,001,2024-12-03_20h22.07.941,SOLO_PROJECT_EXPERIMENT_NUTAN_KAIN_AU2220019,2024.1.5,None,2024-12-03 20h22.27.743613 +0530,
36,0,36,0,,,,,180.98401309998007,,,,,,,,,,,,,,,,,180.97013279999373,180.98401309998007,180.98401309998007,180.98401309998007,180.98401309998007,180.98401309998007,180.98401309998007,180.98401309998007,0.0008788999984972179,180.98401309998007,182.63410319999093,[-0.4791666666666667],[-0.3997395833333333],[1],[0],[0],[1.6627367999753915],[1],['subtle_anger'],182.63556359999347,182.6486075000139,0.001112000027205795,182.6486075000139,182.6486075000139,182.6486075000139,182.6486075000139,182.6486075000139,182.6486075000139,182.6486075000139,191.83920540002873,[0.8151041666666666],[-0.09244791666666667],[1],[0],[0],[9.201358199992683],[],[],,,,,,,,,,,,,,,,,,,,,,,,,,,,,,,,,,,,,,,,,,,,,,,,,,05T,001,2024-12-03_20h22.07.941,SOLO_PROJECT_EXPERIMENT_NUTAN_KAIN_AU2220019,2024.1.5,None,2024-12-03 20h22.27.743613 +0530,
37,0,37,0,,,,,191.85338129999582,,,,,,,,,,,,,,,,,191.84217160003027,191.85338129999582,191.85338129999582,191.85338129999582,191.85338129999582,191.85338129999582,191.85338129999582,191.85338129999582,0.0020434000180102885,191.85338129999582,194.22276939998847,[-0.03125],[-0.18229166666666666],[1],[0],[0],[2.378568099986296],[1],['subtle_anger'],194.22461630002363,194.23742209997727,0.0007665000157430768,194.23742209997727,194.23742209997727,194.23742209997727,194.23742209997727,194.23742209997727,194.23742209997727,194.23742209997727,196.18884910002816,[0.08854166666666667],[-0.21223958333333334],[1],[0],[0],[1.9627785999909975],[1],['subtle_anger_main'],,,,,,,,,,,,,,,,,,,,,,,,,,,,,,,,,,,,,,,,,,,,,,,,,,05T,001,2024-12-03_20h22.07.941,SOLO_PROJECT_EXPERIMENT_NUTAN_KAIN_AU2220019,2024.1.5,None,2024-12-03 20h22.27.743613 +0530,
38,0,38,0,,,,,196.20232769998256,,,,,,,,,,,,,,,,,196.19129520002753,196.20232769998256,196.20232769998256,196.20232769998256,196.20232769998256,196.20232769998256,196.20232769998256,196.20232769998256,0.0013791000237688422,196.20232769998256,197.4030978999799,[0.12109375],[-0.0625],[1],[0],[0],[1.2102256000507623],[1],['subtle_anger'],197.40437070000917,197.4175199000165,0.000535300001502037,197.4175199000165,197.4175199000165,197.4175199000165,197.4175199000165,197.4175199000165,197.4175199000165,197.4175199000165,199.31794759997865,[-0.234375],[0.03515625],[1],[0],[0],[1.9122263999888673],[1],['subtle_anger_main'],,,,,,,,,,,,,,,,,,,,,,,,,,,,,,,,,,,,,,,,,,,,,,,,,,05T,001,2024-12-03_20h22.07.941,SOLO_PROJECT_EXPERIMENT_NUTAN_KAIN_AU2220019,2024.1.5,None,2024-12-03 20h22.27.743613 +0530,
39,0,39,0,,,,,199.3325151000172,,,,,,,,,,,,,,,,,199.32043999998132,199.3325151000172,199.3325151000172,199.3325151000172,199.3325151000172,199.3325151000172,199.3325151000172,199.3325151000172,0.0012144999927841127,199.3325151000172,204.49647449998884,[0.3372395833333333],[-0.14583333333333334],[1],[0],[0],[5.17433449998498],[1],['subtle_anger'],204.49826570000732,204.51011949998792,0.0007295000250451267,204.51011949998792,204.51011949998792,204.51011949998792,204.51011949998792,204.51011949998792,204.51011949998792,204.51011949998792,206.54609660001006,[-0.24869791666666666],[0.17708333333333334],[1],[0],[0],[2.0460355999530293],[1],['subtle_anger_main'],,,,,,,,,,,,,,,,,,,,,,,,,,,,,,,,,,,,,,,,,,,,,,,,,,05T,001,2024-12-03_20h22.07.941,SOLO_PROJECT_EXPERIMENT_NUTAN_KAIN_AU2220019,2024.1.5,None,2024-12-03 20h22.27.743613 +0530,
40,0,40,0,,,,,206.56244830001378,,,,,,,,,,,,,,,,,206.55002299998887,206.56244830001378,206.56244830001378,206.56244830001378,206.56244830001378,206.56244830001378,206.56244830001378,206.56244830001378,0.0022888999665156007,206.56244830001378,208.82479540002532,[-0.20182291666666666],[0.029947916666666668],[1],[0],[0],[2.2724289000034332],[1],['subtle_anger'],208.8263292000047,208.83948110003257,0.00074970000423491,208.83948110003257,208.83948110003257,208.83948110003257,208.83948110003257,208.83948110003257,208.83948110003257,208.83948110003257,210.77443190000486,[0.31640625],[-0.06770833333333333],[1],[0],[0],[1.9466178999864496],[1],['subtle_anger_main'],,,,,,,,,,,,,,,,,,,,,,,,,,,,,,,,,,,,,,,,,,,,,,,,,,05T,001,2024-12-03_20h22.07.941,SOLO_PROJECT_EXPERIMENT_NUTAN_KAIN_AU2220019,2024.1.5,None,2024-12-03 20h22.27.743613 +0530,
41,0,41,0,,,,,210.78771810000762,,,,,,,,,,,,,,,,,210.7764382000314,210.78771810000762,210.78771810000762,210.78771810000762,210.78771810000762,210.78771810000762,210.78771810000762,210.78771810000762,0.0009905000333674252,210.78771810000762,212.25534959998913,[-0.25390625],[-0.10677083333333333],[1],[0],[0],[1.4773584000067785],[1],['subtle_anger'],212.25724730000366,212.27057480002986,0.000790800026152283,212.27057480002986,212.27057480002986,212.27057480002986,212.27057480002986,212.27057480002986,212.27057480002986,212.27057480002986,213.9365766000119,[0.3919270833333333],[0.08723958333333333],[1],[0],[0],[1.6779881999827921],[1],['subtle_anger_main'],,,,,,,,,,,,,,,,,,,,,,,,,,,,,,,,,,,,,,,,,,,,,,,,,,05T,001,2024-12-03_20h22.07.941,SOLO_PROJECT_EXPERIMENT_NUTAN_KAIN_AU2220019,2024.1.5,None,2024-12-03 20h22.27.743613 +0530,
42,0,42,0,,,,,213.95092720002867,,,,,,,,,,,,,,,,,213.93828920001397,213.95092720002867,213.95092720002867,213.95092720002867,213.95092720002867,213.95092720002867,213.95092720002867,213.95092720002867,0.0007915000314824283,213.95092720002867,215.45273680001264,[-0.2994791666666667],[-0.12239583333333333],[1],[0],[0],[1.513140700000804],[1],['subtle_anger'],215.45467379997717,215.46618530002888,0.0007538999780081213,215.46618530002888,215.46618530002888,215.46618530002888,215.46618530002888,215.46618530002888,215.46618530002888,215.46618530002888,217.66656959999818,[-0.43359375],[0.3411458333333333],[1],[0],[0],[2.2104341999511234],[1],['subtle_anger_main'],,,,,,,,,,,,,,,,,,,,,,,,,,,,,,,,,,,,,,,,,,,,,,,,,,05T,001,2024-12-03_20h22.07.941,SOLO_PROJECT_EXPERIMENT_NUTAN_KAIN_AU2220019,2024.1.5,None,2024-12-03 20h22.27.743613 +0530,
43,0,43,0,,,,,217.6830938999774,,,,,,,,,,,,,,,,,217.66954770003213,217.6830938999774,217.6830938999774,217.6830938999774,217.6830938999774,217.6830938999774,217.6830938999774,217.6830938999774,0.001458599988836795,217.6830938999774,219.4324009999982,[0.3229166666666667],[-0.3645833333333333],[1],[0],[0],[1.7610375000513159],[1],['subtle_anger'],219.43455330003053,219.44602410000516,0.0008840999798849225,219.44602410000516,219.44602410000516,219.44602410000516,219.44602410000516,219.44602410000516,219.44602410000516,219.44602410000516,221.16346220002742,[0.0390625],[0.048177083333333336],[1],[0],[0],[1.7274080000352114],[1],['subtle_anger_main'],,,,,,,,,,,,,,,,,,,,,,,,,,,,,,,,,,,,,,,,,,,,,,,,,,05T,001,2024-12-03_20h22.07.941,SOLO_PROJECT_EXPERIMENT_NUTAN_KAIN_AU2220019,2024.1.5,None,2024-12-03 20h22.27.743613 +0530,
44,0,44,0,,,,,221.17713660001755,,,,,,,,,,,,,,,,,221.165435300034,221.17713660001755,221.17713660001755,221.17713660001755,221.17713660001755,221.17713660001755,221.17713660001755,221.17713660001755,0.0011038999655283988,221.17713660001755,222.92872730002273,[-0.3411458333333333],[-0.20572916666666666],[1],[0],[0],[1.7617474000435323],[1],['subtle_anger'],222.93048919999273,222.94227070000488,0.0007486999966204166,222.94227070000488,222.94227070000488,222.94227070000488,222.94227070000488,222.94227070000488,222.94227070000488,222.94227070000488,224.19435970002087,[-0.3580729166666667],[0.10677083333333333],[1],[0],[0],[1.2624294999986887],[1],['subtle_anger_main'],,,,,,,,,,,,,,,,,,,,,,,,,,,,,,,,,,,,,,,,,,,,,,,,,,05T,001,2024-12-03_20h22.07.941,SOLO_PROJECT_EXPERIMENT_NUTAN_KAIN_AU2220019,2024.1.5,None,2024-12-03 20h22.27.743613 +0530,
45,0,45,0,,,,,224.20780129998457,,,,,,,,,,,,,,,,,224.19669339997927,224.20780129998457,224.20780129998457,224.20780129998457,224.20780129998457,224.20780129998457,224.20780129998457,224.20780129998457,0.001281999982893467,224.20780129998457,226.39169210003456,[-0.26171875],[-0.3671875],[1],[0],[0],[2.1933362999698147],[1],['subtle_anger'],226.3939147000201,226.40560559998266,0.0008227000362239778,226.40560559998266,226.40560559998266,226.40560559998266,226.40560559998266,226.40560559998266,226.40560559998266,226.40560559998266,228.23936720000347,[0.4908854166666667],[-0.22265625],[1],[0],[0],[1.843892400036566],[1],['subtle_anger_main'],,,,,,,,,,,,,,,,,,,,,,,,,,,,,,,,,,,,,,,,,,,,,,,,,,05T,001,2024-12-03_20h22.07.941,SOLO_PROJECT_EXPERIMENT_NUTAN_KAIN_AU2220019,2024.1.5,None,2024-12-03 20h22.27.743613 +0530,
46,0,46,0,,,,,228.2536095000105,,,,,,,,,,,,,,,,,228.241423200001,228.2536095000105,228.2536095000105,228.2536095000105,228.2536095000105,228.2536095000105,228.2536095000105,228.2536095000105,0.0011881999671459198,228.2536095000105,229.63849680003477,[0.40234375],[0.2903645833333333],[1],[0],[0],[1.3955488000065088],[1],['subtle_anger'],229.64006300002802,229.65238600003067,0.0007241999846883118,229.65238600003067,229.65238600003067,229.65238600003067,229.65238600003067,229.65238600003067,229.65238600003067,229.65238600003067,232.2533435000223,[-0.5065104166666666],[0.4309895833333333],[1],[0],[0],[2.611414099985268],[1],['subtle_anger_main'],,,,,,,,,,,,,,,,,,,,,,,,,,,,,,,,,,,,,,,,,,,,,,,,,,05T,001,2024-12-03_20h22.07.941,SOLO_PROJECT_EXPERIMENT_NUTAN_KAIN_AU2220019,2024.1.5,None,2024-12-03 20h22.27.743613 +0530,
47,0,47,0,,,,,232.27229150000494,,,,,,,,,,,,,,,,,232.25686630001292,232.27229150000494,232.27229150000494,232.27229150000494,232.27229150000494,232.27229150000494,232.27229150000494,232.27229150000494,0.0024649000260978937,232.27229150000494,233.86841320001986,[-0.3489583333333333],[0.09244791666666667],[1],[0],[0],[1.6088116000173613],[1],['subtle_anger'],233.87023689999478,233.88254840002628,0.0006726999999955297,233.88254840002628,233.88254840002628,233.88254840002628,233.88254840002628,233.88254840002628,233.88254840002628,233.88254840002628,235.84934880002402,[-0.30078125],[0.3619791666666667],[1],[0],[0],[1.9776255000033416],[1],['subtle_anger_main'],,,,,,,,,,,,,,,,,,,,,,,,,,,,,,,,,,,,,,,,,,,,,,,,,,05T,001,2024-12-03_20h22.07.941,SOLO_PROJECT_EXPERIMENT_NUTAN_KAIN_AU2220019,2024.1.5,None,2024-12-03 20h22.27.743613 +0530,
48,0,48,0,,,,,235.86331039998913,,,,,,,,,,,,,,,,,235.8519500999828,235.86331039998913,235.86331039998913,235.86331039998913,235.86331039998913,235.86331039998913,235.86331039998913,235.86331039998913,0.0014586999895982444,235.86331039998913,237.43009530002018,[-0.22916666666666666],[0.033854166666666664],[1],[0],[0],[1.5765070000197738],[1],['subtle_anger'],237.43155660002958,237.4452340999851,0.0006781999836675823,237.4452340999851,237.4452340999851,237.4452340999851,237.4452340999851,237.4452340999851,237.4452340999851,237.4452340999851,239.64412519999314,[0.09765625],[-0.3268229166666667],[1],[0],[0],[2.211281099996995],[1],['subtle_anger_main'],,,,,,,,,,,,,,,,,,,,,,,,,,,,,,,,,,,,,,,,,,,,,,,,,,05T,001,2024-12-03_20h22.07.941,SOLO_PROJECT_EXPERIMENT_NUTAN_KAIN_AU2220019,2024.1.5,None,2024-12-03 20h22.27.743613 +0530,
49,0,49,0,,,,,239.65955229999963,,,,,,,,,,,,,,,,,239.64616549998755,239.65955229999963,239.65955229999963,239.65955229999963,239.65955229999963,239.65955229999963,239.65955229999963,239.65955229999963,0.001070300000719726,239.65955229999963,241.2268880000338,[0.2643229166666667],[-0.16145833333333334],[1],[0],[0],[1.5793912999797612],[1],['subtle_anger'],241.2283247000305,241.24112120002974,0.0005885999999009073,241.24112120002974,241.24112120002974,241.24112120002974,241.24112120002974,241.24112120002974,241.24112120002974,241.24112120002974,243.47782279999228,[0.3684895833333333],[-0.036458333333333336],[1],[0],[0],[2.2477790999691933],[1],['subtle_anger_main'],,,,,,,,,,,,,,,,,,,,,,,,,,,,,,,,,,,,,,,,,,,,,,,,,,05T,001,2024-12-03_20h22.07.941,SOLO_PROJECT_EXPERIMENT_NUTAN_KAIN_AU2220019,2024.1.5,None,2024-12-03 20h22.27.743613 +0530,
,,,,,,,,,,,,,,,,,,,,,,,,,,,,,,,,,,,,,,,,,,,,,,,,,,,,,,,,,,,,,,,243.4800812000176,243.49894850002602,243.49894850002602,243.49894850002602,256.67868090001866,space,13.165923100023065,None,,,,,,,,,,,,,,,,,,,,,,,,,,,,,,,,,,,,,,,,,,05T,001,2024-12-03_20h22.07.941,SOLO_PROJECT_EXPERIMENT_NUTAN_KAIN_AU2220019,2024.1.5,None,2024-12-03 20h22.27.743613 +0530,
,,,,0,0,0,0,257.044080200023,,,,,,,,,,,,,,,,,,,,,,,,,,,,,,,,,,,,,,,,,,,,,,,,,,,,,,,,,,,,,,,256.681172600016,257.044080200023,257.044080200023,257.044080200023,257.044080200023,257.044080200023,257.044080200023,257.044080200023,0.0033559000003151596,257.044080200023,258.54372050001984,[-0.0703125],[0.3203125],[1],[0],[0],[1.8608695999719203],[1],['clear_anger'],258.5461438000202,259.13899539998965,0.0006617999752052128,259.13899539998965,259.13899539998965,259.13899539998965,259.13899539998965,259.13899539998965,259.13899539998965,259.13899539998965,260.5586476000026,[-0.11197916666666667],[-0.018229166666666668],[1],[0],[0],[2.011083999997936],[1],['clear_anger_main'],,,,05T,001,2024-12-03_20h22.07.941,SOLO_PROJECT_EXPERIMENT_NUTAN_KAIN_AU2220019,2024.1.5,None,2024-12-03 20h22.27.743613 +0530,
,,,,1,0,1,0,260.5722761999932,,,,,,,,,,,,,,,,,,,,,,,,,,,,,,,,,,,,,,,,,,,,,,,,,,,,,,,,,,,,,,,260.5617055000039,260.5722761999932,260.5722761999932,260.5722761999932,260.5722761999932,260.5722761999932,260.5722761999932,260.5722761999932,0.0013182000257074833,260.5722761999932,262.3394830999896,[-0.19661458333333334],[-0.45703125],[1],[0],[0],[1.7760969999944791],[1],['clear_anger'],262.341128,262.3538392999908,0.0006184999947436154,262.3538392999908,262.3538392999908,262.3538392999908,262.3538392999908,262.3538392999908,262.3538392999908,262.3538392999908,264.43782639998244,[0.06640625],[-0.3450520833333333],[1],[0],[0],[2.0953628999996],[1],['clear_anger_main'],,,,05T,001,2024-12-03_20h22.07.941,SOLO_PROJECT_EXPERIMENT_NUTAN_KAIN_AU2220019,2024.1.5,None,2024-12-03 20h22.27.743613 +0530,
,,,,2,0,2,0,264.45140979997814,,,,,,,,,,,,,,,,,,,,,,,,,,,,,,,,,,,,,,,,,,,,,,,,,,,,,,,,,,,,,,,264.4400885999785,264.45140979997814,264.45140979997814,264.45140979997814,264.45140979997814,264.45140979997814,264.45140979997814,264.45140979997814,0.0013380000018514693,264.45140979997814,266.4352706000209,[-0.09895833333333333],[0.16796875],[1],[0],[0],[1.9931776999728754],[1],['clear_anger'],266.4370887000114,266.44977539998945,0.0008046000148169696,266.44977539998945,266.44977539998945,266.44977539998945,266.44977539998945,266.44977539998945,266.44977539998945,266.44977539998945,268.13398049998796,[0.12890625],[0.453125],[1],[0],[0],[1.6954039999982342],[1],['clear_anger_main'],,,,05T,001,2024-12-03_20h22.07.941,SOLO_PROJECT_EXPERIMENT_NUTAN_KAIN_AU2220019,2024.1.5,None,2024-12-03 20h22.27.743613 +0530,
,,,,3,0,3,0,268.1476538000279,,,,,,,,,,,,,,,,,,,,,,,,,,,,,,,,,,,,,,,,,,,,,,,,,,,,,,,,,,,,,,,268.13588860002346,268.1476538000279,268.1476538000279,268.1476538000279,268.1476538000279,268.1476538000279,268.1476538000279,268.1476538000279,0.0010584999690763652,268.1476538000279,269.582238300005,[0.3216145833333333],[0.2682291666666667],[1],[0],[0],[1.4448934000101872],[1],['clear_anger'],269.5844996999949,269.5974889000063,0.0009174000006169081,269.5974889000063,269.5974889000063,269.5974889000063,269.5974889000063,269.5974889000063,269.5974889000063,269.5974889000063,271.1472139999969,[-0.3372395833333333],[-0.11458333333333333],[1],[0],[0],[1.561007399985101],[1],['clear_anger_main'],,,,05T,001,2024-12-03_20h22.07.941,SOLO_PROJECT_EXPERIMENT_NUTAN_KAIN_AU2220019,2024.1.5,None,2024-12-03 20h22.27.743613 +0530,
,,,,4,0,4,0,271.1613766999799,,,,,,,,,,,,,,,,,,,,,,,,,,,,,,,,,,,,,,,,,,,,,,,,,,,,,,,,,,,,,,,271.14944639999885,271.1613766999799,271.1613766999799,271.1613766999799,271.1613766999799,271.1613766999799,271.1613766999799,271.1613766999799,0.001109299948439002,271.1613766999799,272.36227470001904,[-0.3828125],[-0.07682291666666667],[1],[0],[0],[1.211430899973493],[1],['clear_anger'],272.3636430000188,272.37776489998214,0.0006306999712251127,272.37776489998214,272.37776489998214,272.37776489998214,272.37776489998214,272.37776489998214,272.37776489998214,272.37776489998214,273.62794500001473,[0.20182291666666666],[0.11328125],[1],[0],[0],[1.2630857999902219],[1],['clear_anger_main'],,,,05T,001,2024-12-03_20h22.07.941,SOLO_PROJECT_EXPERIMENT_NUTAN_KAIN_AU2220019,2024.1.5,None,2024-12-03 20h22.27.743613 +0530,
,,,,5,0,5,0,273.64301549998345,,,,,,,,,,,,,,,,,,,,,,,,,,,,,,,,,,,,,,,,,,,,,,,,,,,,,,,,,,,,,,,273.62964950001333,273.64301549998345,273.64301549998345,273.64301549998345,273.64301549998345,273.64301549998345,273.64301549998345,273.64301549998345,0.0009292000322602689,273.64301549998345,275.476893700019,[-0.20963541666666666],[0.09505208333333333],[1],[0],[0],[1.8457955999765545],[1],['clear_anger'],275.4791096000117,275.4908927999786,0.0008648000075481832,275.4908927999786,275.4908927999786,275.4908927999786,275.4908927999786,275.4908927999786,275.4908927999786,275.4908927999786,277.22363590000896,[-0.10026041666666667],[-0.2109375],[1],[0],[0],[1.7431192999938503],[1],['clear_anger_main'],,,,05T,001,2024-12-03_20h22.07.941,SOLO_PROJECT_EXPERIMENT_NUTAN_KAIN_AU2220019,2024.1.5,None,2024-12-03 20h22.27.743613 +0530,
,,,,6,0,6,0,277.2391069000005,,,,,,,,,,,,,,,,,,,,,,,,,,,,,,,,,,,,,,,,,,,,,,,,,,,,,,,,,,,,,,,277.22509359999094,277.2391069000005,277.2391069000005,277.2391069000005,277.2391069000005,277.2391069000005,277.2391069000005,277.2391069000005,0.0007263000006787479,277.2391069000005,279.4550724999863,[0.12109375],[-0.2669270833333333],[1],[0],[0],[2.228828000021167],[1],['clear_anger'],279.45664069999475,279.4699668000103,0.0006944999913685024,279.4699668000103,279.4699668000103,279.4699668000103,279.4699668000103,279.4699668000103,279.4699668000103,279.4699668000103,282.0190982000204,[0.4765625],[-0.036458333333333336],[1],[0],[0],[2.561166800034698],[1],['clear_anger_main'],,,,05T,001,2024-12-03_20h22.07.941,SOLO_PROJECT_EXPERIMENT_NUTAN_KAIN_AU2220019,2024.1.5,None,2024-12-03 20h22.27.743613 +0530,
,,,,7,0,7,0,282.03447640000377,,,,,,,,,,,,,,,,,,,,,,,,,,,,,,,,,,,,,,,,,,,,,,,,,,,,,,,,,,,,,,,282.02112200000556,282.03447640000377,282.03447640000377,282.03447640000377,282.03447640000377,282.03447640000377,282.03447640000377,282.03447640000377,0.001097499975003302,282.03447640000377,283.58499559998745,[0.006510416666666667],[-0.09765625],[1],[0],[0],[1.5622309999889694],[1],['clear_anger'],283.58678519999376,283.5990358000272,0.0007936999900266528,283.5990358000272,283.5990358000272,283.5990358000272,283.5990358000272,283.5990358000272,283.5990358000272,283.5990358000272,285.1678621000028,[0.23958333333333334],[0.20833333333333334],[1],[0],[0],[1.5795843999949284],[1],['clear_anger_main'],,,,05T,001,2024-12-03_20h22.07.941,SOLO_PROJECT_EXPERIMENT_NUTAN_KAIN_AU2220019,2024.1.5,None,2024-12-03 20h22.27.743613 +0530,
,,,,8,0,8,0,285.1812760999892,,,,,,,,,,,,,,,,,,,,,,,,,,,,,,,,,,,,,,,,,,,,,,,,,,,,,,,,,,,,,,,285.170017299999,285.1812760999892,285.1812760999892,285.1812760999892,285.1812760999892,285.1812760999892,285.1812760999892,285.1812760999892,0.0012600999907590449,285.1812760999892,286.7323617999791,[-0.28515625],[0.25390625],[1],[0],[0],[1.56056199996965],[1],['clear_anger'],286.7344312000205,286.7471872000024,0.0008199000149033964,286.7471872000024,286.7471872000024,286.7471872000024,286.7471872000024,286.7471872000024,286.7471872000024,286.7471872000024,288.7979844000074,[-0.2760416666666667],[0.3828125],[1],[0],[0],[2.061760200012941],[1],['clear_anger_main'],,,,05T,001,2024-12-03_20h22.07.941,SOLO_PROJECT_EXPERIMENT_NUTAN_KAIN_AU2220019,2024.1.5,None,2024-12-03 20h22.27.743613 +0530,
,,,,9,0,9,0,288.8115838000085,,,,,,,,,,,,,,,,,,,,,,,,,,,,,,,,,,,,,,,,,,,,,,,,,,,,,,,,,,,,,,,288.8006066000089,288.8115838000085,288.8115838000085,288.8115838000085,288.8115838000085,288.8115838000085,288.8115838000085,288.8115838000085,0.001337599998805672,288.8115838000085,290.61186360003194,[0.1171875],[0.3541666666666667],[1],[0],[0],[1.8095671000191942],[1],['clear_anger'],290.61346999998204,290.62640810001176,0.0007980999653227627,290.62640810001176,290.62640810001176,290.62640810001176,290.62640810001176,290.62640810001176,290.62640810001176,290.62640810001176,293.14356659998884,[0.09375],[-0.3502604166666667],[1],[0],[0],[2.528689200000372],[1],['clear_anger_main'],,,,05T,001,2024-12-03_20h22.07.941,SOLO_PROJECT_EXPERIMENT_NUTAN_KAIN_AU2220019,2024.1.5,None,2024-12-03 20h22.27.743613 +0530,
,,,,10,0,10,0,293.1569984999951,,,,,,,,,,,,,,,,,,,,,,,,,,,,,,,,,,,,,,,,,,,,,,,,,,,,,,,,,,,,,,,293.1454371000291,293.1569984999951,293.1569984999951,293.1569984999951,293.1569984999951,293.1569984999951,293.1569984999951,293.1569984999951,0.0010338000138290226,293.1569984999951,294.9407304000342,[0.4309895833333333],[0.3880208333333333],[1],[0],[0],[1.7938025000039488],[1],['clear_anger'],294.94232430000557,294.95518739998806,0.0006591000128537416,294.95518739998806,294.95518739998806,294.95518739998806,294.95518739998806,294.95518739998806,294.95518739998806,294.95518739998806,297.5887542000273,[0.2838541666666667],[-0.2421875],[1],[0],[0],[2.6450315000256523],[1],['clear_anger_main'],,,,05T,001,2024-12-03_20h22.07.941,SOLO_PROJECT_EXPERIMENT_NUTAN_KAIN_AU2220019,2024.1.5,None,2024-12-03 20h22.27.743613 +0530,
,,,,11,0,11,0,297.6027033000137,,,,,,,,,,,,,,,,,,,,,,,,,,,,,,,,,,,,,,,,,,,,,,,,,,,,,,,,,,,,,,,297.5904529999825,297.6027033000137,297.6027033000137,297.6027033000137,297.6027033000137,297.6027033000137,297.6027033000137,297.6027033000137,0.0009345000144094229,297.6027033000137,299.0697014000034,[0.2708333333333333],[-0.24088541666666666],[1],[0],[0],[1.4779292999883182],[1],['clear_anger'],299.07166650000727,299.0841303000343,0.0008777000475674868,299.0841303000343,299.0841303000343,299.0841303000343,299.0841303000343,299.0841303000343,299.0841303000343,299.0841303000343,302.0342494000215,[0.5247395833333334],[0.19921875],[1],[0],[0],[2.9610183000331745],[1],['clear_anger_main'],,,,05T,001,2024-12-03_20h22.07.941,SOLO_PROJECT_EXPERIMENT_NUTAN_KAIN_AU2220019,2024.1.5,None,2024-12-03 20h22.27.743613 +0530,
,,,,12,0,12,0,302.04797549999785,,,,,,,,,,,,,,,,,,,,,,,,,,,,,,,,,,,,,,,,,,,,,,,,,,,,,,,,,,,,,,,302.0363189000054,302.04797549999785,302.04797549999785,302.04797549999785,302.04797549999785,302.04797549999785,302.04797549999785,302.04797549999785,0.0010585999698378146,302.04797549999785,303.33230150002055,[-0.17057291666666666],[0.3489583333333333],[1],[0],[0],[1.2945827000075951],[1],['clear_anger'],303.33392599999206,303.34669989999384,0.000729900028090924,303.34669989999384,303.34669989999384,303.34669989999384,303.34669989999384,303.34669989999384,303.34669989999384,303.34669989999384,307.9609214999946,[0.3997395833333333],[0.4765625],[1],[0],[0],[4.625692099973094],[1],['clear_anger_main'],,,,05T,001,2024-12-03_20h22.07.941,SOLO_PROJECT_EXPERIMENT_NUTAN_KAIN_AU2220019,2024.1.5,None,2024-12-03 20h22.27.743613 +0530,
,,,,13,0,13,0,307.97538780001923,,,,,,,,,,,,,,,,,,,,,,,,,,,,,,,,,,,,,,,,,,,,,,,,,,,,,,,,,,,,,,,307.9625165000325,307.97538780001923,307.97538780001923,307.97538780001923,307.97538780001923,307.97538780001923,307.97538780001923,307.97538780001923,0.0008154999813996255,307.97538780001923,309.6258099999977,[0.3541666666666667],[-0.3125],[1],[0],[0],[1.6620350999874063],[1],['clear_anger'],309.6269696999807,309.6409246000112,0.0004952000454068184,309.6409246000112,309.6409246000112,309.6409246000112,309.6409246000112,309.6409246000112,309.6409246000112,309.6409246000112,311.0250771000283,[0.08723958333333333],[-0.109375],[1],[0],[0],[1.396805200027302],[1],['clear_anger_main'],,,,05T,001,2024-12-03_20h22.07.941,SOLO_PROJECT_EXPERIMENT_NUTAN_KAIN_AU2220019,2024.1.5,None,2024-12-03 20h22.27.743613 +0530,
,,,,14,0,14,0,311.03946290002204,,,,,,,,,,,,,,,,,,,,,,,,,,,,,,,,,,,,,,,,,,,,,,,,,,,,,,,,,,,,,,,311.02738240000326,311.03946290002204,311.03946290002204,311.03946290002204,311.03946290002204,311.03946290002204,311.03946290002204,311.03946290002204,0.0012339000240899622,311.03946290002204,312.57597120001446,[0.3971354166666667],[0.3971354166666667],[1],[0],[0],[1.5467357000452466],[1],['clear_anger'],312.57837579998886,312.5904665000271,0.0010217999806627631,312.5904665000271,312.5904665000271,312.5904665000271,312.5904665000271,312.5904665000271,312.5904665000271,312.5904665000271,314.0886216000072,[0.22265625],[-0.052083333333333336],[1],[0],[0],[1.5085358999785967],[1],['clear_anger_main'],,,,05T,001,2024-12-03_20h22.07.941,SOLO_PROJECT_EXPERIMENT_NUTAN_KAIN_AU2220019,2024.1.5,None,2024-12-03 20h22.27.743613 +0530,
,,,,15,0,15,0,314.10275219997857,,,,,,,,,,,,,,,,,,,,,,,,,,,,,,,,,,,,,,,,,,,,,,,,,,,,,,,,,,,,,,,314.0903987000347,314.10275219997857,314.10275219997857,314.10275219997857,314.10275219997857,314.10275219997857,314.10275219997857,314.10275219997857,0.0010269000194966793,314.10275219997857,315.6206481999834,[0.14583333333333334],[-0.18359375],[1],[0],[0],[1.5288481999887154],[1],['clear_anger'],315.6220495000016,315.63454170001205,0.0006996000302024186,315.63454170001205,315.63454170001205,315.63454170001205,315.63454170001205,315.63454170001205,315.63454170001205,315.63454170001205,317.13551659998484,[-0.4270833333333333],[0.359375],[1],[0],[0],[1.512172999966424],[1],['clear_anger_main'],,,,05T,001,2024-12-03_20h22.07.941,SOLO_PROJECT_EXPERIMENT_NUTAN_KAIN_AU2220019,2024.1.5,None,2024-12-03 20h22.27.743613 +0530,
,,,,16,0,16,0,317.14955710002687,,,,,,,,,,,,,,,,,,,,,,,,,,,,,,,,,,,,,,,,,,,,,,,,,,,,,,,,,,,,,,,317.13741299998946,317.14955710002687,317.14955710002687,317.14955710002687,317.14955710002687,317.14955710002687,317.14955710002687,317.14955710002687,0.0010623999987728894,317.14955710002687,318.93415089999326,[-0.12890625],[-0.3567708333333333],[1],[0],[0],[1.7952896000351757],[],[],318.9357437000144,318.9483587000286,0.0007819000165909529,318.9483587000286,318.9483587000286,318.9483587000286,318.9483587000286,318.9483587000286,318.9483587000286,318.9483587000286,322.0656446000212,[-0.3971354166666667],[-0.08333333333333333],[1],[0],[0],[3.128231400041841],[],[],,,,05T,001,2024-12-03_20h22.07.941,SOLO_PROJECT_EXPERIMENT_NUTAN_KAIN_AU2220019,2024.1.5,None,2024-12-03 20h22.27.743613 +0530,
,,,,17,0,17,0,322.080105800007,,,,,,,,,,,,,,,,,,,,,,,,,,,,,,,,,,,,,,,,,,,,,,,,,,,,,,,,,,,,,,,322.0683070999803,322.080105800007,322.080105800007,322.080105800007,322.080105800007,322.080105800007,322.080105800007,322.080105800007,0.001555600028950721,322.080105800007,324.44700600003125,[-0.015625],[-0.4830729166666667],[1],[0],[0],[2.3768672000151128],[1],['clear_anger'],324.44900750002125,324.46002430003136,0.0008713999995961785,324.46002430003136,324.46002430003136,324.46002430003136,324.46002430003136,324.46002430003136,324.46002430003136,324.46002430003136,326.2963458999875,[0.15494791666666666],[-0.17838541666666666],[1],[0],[0],[1.845266200019978],[1],['clear_anger_main'],,,,05T,001,2024-12-03_20h22.07.941,SOLO_PROJECT_EXPERIMENT_NUTAN_KAIN_AU2220019,2024.1.5,None,2024-12-03 20h22.27.743613 +0530,
,,,,18,0,18,0,326.31742630002555,,,,,,,,,,,,,,,,,,,,,,,,,,,,,,,,,,,,,,,,,,,,,,,,,,,,,,,,,,,,,,,326.3007683000178,326.31742630002555,326.31742630002555,326.31742630002555,326.31742630002555,326.31742630002555,326.31742630002555,326.31742630002555,0.00279440003214404,326.31742630002555,328.7241218999843,[0.3333333333333333],[-0.36328125],[1],[0],[0],[2.420502500026487],[1],['clear_anger'],328.7257005000138,328.73830909997923,0.0007868999964557588,328.73830909997923,328.73830909997923,328.73830909997923,328.73830909997923,328.73830909997923,328.73830909997923,328.73830909997923,330.0725704000215,[0.026041666666666668],[-0.13671875],[1],[0],[0],[1.345316399994772],[1],['clear_anger_main'],,,,05T,001,2024-12-03_20h22.07.941,SOLO_PROJECT_EXPERIMENT_NUTAN_KAIN_AU2220019,2024.1.5,None,2024-12-03 20h22.27.743613 +0530,
,,,,19,0,19,0,330.0875803999952,,,,,,,,,,,,,,,,,,,,,,,,,,,,,,,,,,,,,,,,,,,,,,,,,,,,,,,,,,,,,,,330.0748892999836,330.0875803999952,330.0875803999952,330.0875803999952,330.0875803999952,330.0875803999952,330.0875803999952,330.0875803999952,0.0015235000173561275,330.0875803999952,332.0871055999887,[0.1171875],[0.3580729166666667],[1],[0],[0],[2.0104670000146143],[1],['clear_anger'],332.0885093000252,332.1020816999953,0.0006824000156484544,332.1020816999953,332.1020816999953,332.1020816999953,332.1020816999953,332.1020816999953,332.1020816999953,332.1020816999953,334.20239859999856,[-0.19010416666666666],[-0.22135416666666666],[1],[0],[0],[2.1124489000067115],[1],['clear_anger_main'],,,,05T,001,2024-12-03_20h22.07.941,SOLO_PROJECT_EXPERIMENT_NUTAN_KAIN_AU2220019,2024.1.5,None,2024-12-03 20h22.27.743613 +0530,
,,,,20,0,20,0,334.21771830000216,,,,,,,,,,,,,,,,,,,,,,,,,,,,,,,,,,,,,,,,,,,,,,,,,,,,,,,,,,,,,,,334.2051521000103,334.21771830000216,334.21771830000216,334.21771830000216,334.21771830000216,334.21771830000216,334.21771830000216,334.21771830000216,0.0015022000297904015,334.21771830000216,336.10041110002203,[-0.5013020833333334],[-0.3333333333333333],[1],[0],[0],[1.8934292999911122],[1],['clear_anger'],336.10246580000967,336.114455300034,0.0007902000215835869,336.114455300034,336.114455300034,336.114455300034,336.114455300034,336.114455300034,336.114455300034,336.114455300034,337.4483958000201,[0.0546875],[-0.029947916666666668],[1],[0],[0],[1.344516700017266],[1],['clear_anger_main'],,,,05T,001,2024-12-03_20h22.07.941,SOLO_PROJECT_EXPERIMENT_NUTAN_KAIN_AU2220019,2024.1.5,None,2024-12-03 20h22.27.743613 +0530,
,,,,21,0,21,0,337.4628986000316,,,,,,,,,,,,,,,,,,,,,,,,,,,,,,,,,,,,,,,,,,,,,,,,,,,,,,,,,,,,,,,337.4503686000244,337.4628986000316,337.4628986000316,337.4628986000316,337.4628986000316,337.4628986000316,337.4628986000316,337.4628986000316,0.0009970000246539712,337.4628986000316,338.8485054000048,[-0.009114583333333334],[0.28125],[1],[0],[0],[1.3965078999754041],[1],['clear_anger'],338.85091969999485,338.86278279998805,0.0008954000077210367,338.86278279998805,338.86278279998805,338.86278279998805,338.86278279998805,338.86278279998805,338.86278279998805,338.86278279998805,340.1294614999788,[-0.08203125],[0.2994791666666667],[1],[0],[0],[1.2769402000121772],[1],['clear_anger_main'],,,,05T,001,2024-12-03_20h22.07.941,SOLO_PROJECT_EXPERIMENT_NUTAN_KAIN_AU2220019,2024.1.5,None,2024-12-03 20h22.27.743613 +0530,
,,,,22,0,22,0,340.1436119999853,,,,,,,,,,,,,,,,,,,,,,,,,,,,,,,,,,,,,,,,,,,,,,,,,,,,,,,,,,,,,,,340.1318186999997,340.1436119999853,340.1436119999853,340.1436119999853,340.1436119999853,340.1436119999853,340.1436119999853,340.1436119999853,0.0013144999975338578,340.1436119999853,341.397260800004,[-0.296875],[0.2903645833333333],[1],[0],[0],[1.2634954000241123],[1],['clear_anger'],341.3996733999811,341.41119910002453,0.0010198000236414373,341.41119910002453,341.41119910002453,341.41119910002453,341.41119910002453,341.41119910002453,341.41119910002453,341.41119910002453,342.46074950002367,[0.0546875],[0.25390625],[1],[0],[0],[1.059213800006546],[1],['clear_anger_main'],,,,05T,001,2024-12-03_20h22.07.941,SOLO_PROJECT_EXPERIMENT_NUTAN_KAIN_AU2220019,2024.1.5,None,2024-12-03 20h22.27.743613 +0530,
,,,,23,0,23,0,342.4748453000211,,,,,,,,,,,,,,,,,,,,,,,,,,,,,,,,,,,,,,,,,,,,,,,,,,,,,,,,,,,,,,,342.46304110001074,342.4748453000211,342.4748453000211,342.4748453000211,342.4748453000211,342.4748453000211,342.4748453000211,342.4748453000211,0.0012335999635979533,342.4748453000211,343.8919823000324,[-0.07552083333333333],[-0.3072916666666667],[1],[0],[0],[1.4273988000350073],[1],['clear_anger'],343.89362089999486,343.9064826000249,0.0006623000372201204,343.9064826000249,343.9064826000249,343.9064826000249,343.9064826000249,343.9064826000249,343.9064826000249,343.9064826000249,345.10861160000786,[0.3893229166666667],[0.3684895833333333],[1],[0],[0],[1.2136408999795094],[1],['clear_anger_main'],,,,05T,001,2024-12-03_20h22.07.941,SOLO_PROJECT_EXPERIMENT_NUTAN_KAIN_AU2220019,2024.1.5,None,2024-12-03 20h22.27.743613 +0530,
,,,,24,0,24,0,345.1222562000039,,,,,,,,,,,,,,,,,,,,,,,,,,,,,,,,,,,,,,,,,,,,,,,,,,,,,,,,,,,,,,,345.11080720002064,345.1222562000039,345.1222562000039,345.1222562000039,345.1222562000039,345.1222562000039,345.1222562000039,345.1222562000039,0.0012204000377096236,345.1222562000039,346.44039170001633,[0.12109375],[0.37109375],[1],[0],[0],[1.3280157999834046],[1],['clear_anger'],346.44192900002236,346.4546875000233,0.0007478999905288219,346.4546875000233,346.4546875000233,346.4546875000233,346.4546875000233,346.4546875000233,346.4546875000233,346.4546875000233,348.28730199998245,[-0.2682291666666667],[-0.16015625],[1],[0],[0],[1.8440169999958016],[1],['clear_anger_main'],,,,05T,001,2024-12-03_20h22.07.941,SOLO_PROJECT_EXPERIMENT_NUTAN_KAIN_AU2220019,2024.1.5,None,2024-12-03 20h22.27.743613 +0530,
,,,,25,0,25,0,348.3028761000023,,,,,,,,,,,,,,,,,,,,,,,,,,,,,,,,,,,,,,,,,,,,,,,,,,,,,,,,,,,,,,,348.2893859000178,348.3028761000023,348.3028761000023,348.3028761000023,348.3028761000023,348.3028761000023,348.3028761000023,348.3028761000023,0.0011192999663762748,348.3028761000023,349.63641279999865,[0.19401041666666666],[0.19401041666666666],[1],[0],[0],[1.3456824999884702],[1],['clear_anger'],349.63765210000565,349.6515758000314,0.0005732999998144805,349.6515758000314,349.6515758000314,349.6515758000314,349.6515758000314,349.6515758000314,349.6515758000314,349.6515758000314,350.70200300001306,[0.20833333333333334],[0.23177083333333334],[1],[0],[0],[1.0632163000409491],[1],['clear_anger_main'],,,,05T,001,2024-12-03_20h22.07.941,SOLO_PROJECT_EXPERIMENT_NUTAN_KAIN_AU2220019,2024.1.5,None,2024-12-03 20h22.27.743613 +0530,
,,,,26,0,26,0,350.7169895999832,,,,,,,,,,,,,,,,,,,,,,,,,,,,,,,,,,,,,,,,,,,,,,,,,,,,,,,,,,,,,,,350.7035032000276,350.7169895999832,350.7169895999832,350.7169895999832,350.7169895999832,350.7169895999832,350.7169895999832,350.7169895999832,0.0008014999912120402,350.7169895999832,352.0512239999953,[0.022135416666666668],[-0.05078125],[1],[0],[0],[1.3465222000377253],[1],['clear_anger'],352.0528809999814,352.06570289999945,0.0006712999893352389,352.06570289999945,352.06570289999945,352.06570289999945,352.06570289999945,352.06570289999945,352.06570289999945,352.06570289999945,353.2499958000262,[0.10546875],[0.13151041666666666],[1],[0],[0],[1.19573209999362],[1],['clear_anger_main'],,,,05T,001,2024-12-03_20h22.07.941,SOLO_PROJECT_EXPERIMENT_NUTAN_KAIN_AU2220019,2024.1.5,None,2024-12-03 20h22.27.743613 +0530,
,,,,27,0,27,0,353.26445030001923,,,,,,,,,,,,,,,,,,,,,,,,,,,,,,,,,,,,,,,,,,,,,,,,,,,,,,,,,,,,,,,353.2524246000103,353.26445030001923,353.26445030001923,353.26445030001923,353.26445030001923,353.26445030001923,353.26445030001923,353.26445030001923,0.0012727000284940004,353.26445030001923,354.9143473000149,[0.3815104166666667],[-0.31640625],[1],[0],[0],[1.660235700022895],[1],['clear_anger'],354.91669179999735,354.9296157999779,0.0008944000001065433,354.9296157999779,354.9296157999779,354.9296157999779,354.9296157999779,354.9296157999779,354.9296157999779,354.9296157999779,356.0141438000137,[0.1328125],[-0.20703125],[1],[0],[0],[1.0959008000208996],[1],['clear_anger_main'],,,,05T,001,2024-12-03_20h22.07.941,SOLO_PROJECT_EXPERIMENT_NUTAN_KAIN_AU2220019,2024.1.5,None,2024-12-03 20h22.27.743613 +0530,
,,,,28,0,28,0,356.02809029998025,,,,,,,,,,,,,,,,,,,,,,,,,,,,,,,,,,,,,,,,,,,,,,,,,,,,,,,,,,,,,,,356.01624740002444,356.02809029998025,356.02809029998025,356.02809029998025,356.02809029998025,356.02809029998025,356.02809029998025,356.02809029998025,0.0011904999846592546,356.02809029998025,357.4955396000296,[0.2721354166666667],[-0.3880208333333333],[1],[0],[0],[1.477715499990154],[1],['clear_anger'],357.49727160000475,357.51017949997913,0.0008158000418916345,357.51017949997913,357.51017949997913,357.51017949997913,357.51017949997913,357.51017949997913,357.51017949997913,357.51017949997913,358.3959275999805,[0.18359375],[0.22005208333333334],[1],[0],[0],[0.8970332000171766],[1],['clear_anger_main'],,,,05T,001,2024-12-03_20h22.07.941,SOLO_PROJECT_EXPERIMENT_NUTAN_KAIN_AU2220019,2024.1.5,None,2024-12-03 20h22.27.743613 +0530,
,,,,29,0,29,0,358.40965139999753,,,,,,,,,,,,,,,,,,,,,,,,,,,,,,,,,,,,,,,,,,,,,,,,,,,,,,,,,,,,,,,358.3981298999861,358.40965139999753,358.40965139999753,358.40965139999753,358.40965139999753,358.40965139999753,358.40965139999753,358.40965139999753,0.001213400042615831,358.40965139999753,359.8604447999969,[-0.06770833333333333],[-0.2643229166666667],[1],[0],[0],[1.4607871999614872],[],[],359.8622754000244,359.87478880002163,0.0008042000117711723,359.87478880002163,359.87478880002163,359.87478880002163,359.87478880002163,359.87478880002163,359.87478880002163,359.87478880002163,362.0583193000057,[-0.26953125],[-0.2708333333333333],[1],[0],[0],[2.194692599994596],[],[],,,,05T,001,2024-12-03_20h22.07.941,SOLO_PROJECT_EXPERIMENT_NUTAN_KAIN_AU2220019,2024.1.5,None,2024-12-03 20h22.27.743613 +0530,
,,,,30,0,30,0,362.0730024999939,,,,,,,,,,,,,,,,,,,,,,,,,,,,,,,,,,,,,,,,,,,,,,,,,,,,,,,,,,,,,,,362.0598909999826,362.0730024999939,362.0730024999939,362.0730024999939,362.0730024999939,362.0730024999939,362.0730024999939,362.0730024999939,0.0008272000122815371,362.0730024999939,363.35664630000247,[0.3072916666666667],[-0.33984375],[1],[0],[0],[1.2954683999996632],[1],['clear_anger'],363.35793460003333,363.3714911999996,0.0005769000272266567,363.3714911999996,363.3714911999996,363.3714911999996,363.3714911999996,363.3714911999996,363.3714911999996,363.3714911999996,364.9050321999821,[0.1015625],[-0.4388020833333333],[1],[0],[0],[1.5459595999564044],[1],['clear_anger_main'],,,,05T,001,2024-12-03_20h22.07.941,SOLO_PROJECT_EXPERIMENT_NUTAN_KAIN_AU2220019,2024.1.5,None,2024-12-03 20h22.27.743613 +0530,
,,,,31,0,31,0,364.9199118000106,,,,,,,,,,,,,,,,,,,,,,,,,,,,,,,,,,,,,,,,,,,,,,,,,,,,,,,,,,,,,,,364.90652030002093,364.9199118000106,364.9199118000106,364.9199118000106,364.9199118000106,364.9199118000106,364.9199118000106,364.9199118000106,0.0008526999736204743,364.9199118000106,366.02106250001816,[-0.21875],[0.03125],[1],[0],[0],[1.1132886999985203],[1],['clear_anger'],366.0226646999945,366.03529119997984,0.0007332999957725406,366.03529119997984,366.03529119997984,366.03529119997984,366.03529119997984,366.03529119997984,366.03529119997984,366.03529119997984,368.05277509998996,[-0.328125],[-0.14192708333333334],[1],[0],[0],[2.0284807000425644],[1],['clear_anger_main'],,,,05T,001,2024-12-03_20h22.07.941,SOLO_PROJECT_EXPERIMENT_NUTAN_KAIN_AU2220019,2024.1.5,None,2024-12-03 20h22.27.743613 +0530,
,,,,32,0,32,0,368.066534099984,,,,,,,,,,,,,,,,,,,,,,,,,,,,,,,,,,,,,,,,,,,,,,,,,,,,,,,,,,,,,,,368.05483540002024,368.066534099984,368.066534099984,368.066534099984,368.066534099984,368.066534099984,368.066534099984,368.066534099984,0.001159599982202053,368.066534099984,369.1184506000136,[0.171875],[0.2721354166666667],[1],[0],[0],[1.062041400000453],[1],['clear_anger'],369.12029729998903,369.13256940001156,0.0009899999713525176,369.13256940001156,369.13256940001156,369.13256940001156,369.13256940001156,369.13256940001156,369.13256940001156,369.13256940001156,370.23352260002866,[-0.13151041666666666],[0.00390625],[1],[0],[0],[1.1114770999993198],[1],['clear_anger_main'],,,,05T,001,2024-12-03_20h22.07.941,SOLO_PROJECT_EXPERIMENT_NUTAN_KAIN_AU2220019,2024.1.5,None,2024-12-03 20h22.27.743613 +0530,
,,,,33,0,33,0,370.2478577999864,,,,,,,,,,,,,,,,,,,,,,,,,,,,,,,,,,,,,,,,,,,,,,,,,,,,,,,,,,,,,,,370.23585789999925,370.2478577999864,370.2478577999864,370.2478577999864,370.2478577999864,370.2478577999864,370.2478577999864,370.2478577999864,0.0012173000141046941,370.2478577999864,371.73338190000504,[-0.03515625],[-0.08203125],[1],[0],[0],[1.4954670000006445],[1],['clear_anger'],371.73513580003055,371.7464351999806,0.0007395999855361879,371.7464351999806,371.7464351999806,371.7464351999806,371.7464351999806,371.7464351999806,371.7464351999806,371.7464351999806,377.6936990999966,[-0.05078125],[-0.2825520833333333],[1],[0],[0],[5.957004399970174],[1],['clear_anger_main'],,,,05T,001,2024-12-03_20h22.07.941,SOLO_PROJECT_EXPERIMENT_NUTAN_KAIN_AU2220019,2024.1.5,None,2024-12-03 20h22.27.743613 +0530,
,,,,34,0,34,0,377.71056320000207,,,,,,,,,,,,,,,,,,,,,,,,,,,,,,,,,,,,,,,,,,,,,,,,,,,,,,,,,,,,,,,377.6970951000112,377.71056320000207,377.71056320000207,377.71056320000207,377.71056320000207,377.71056320000207,377.71056320000207,377.71056320000207,0.001950100006069988,377.71056320000207,379.845251700026,[-0.10286458333333333],[0.11588541666666667],[1],[0],[0],[2.144835499988403],[1],['clear_anger'],379.85367119999137,379.87533180002356,0.0032501999521628022,379.87533180002356,379.87533180002356,379.87533180002356,379.87533180002356,379.87533180002356,379.87533180002356,379.87533180002356,382.4539534000214,[-0.13932291666666666],[0.11458333333333333],[1],[0],[0],[2.595963500032667],[1],['clear_anger_main'],,,,05T,001,2024-12-03_20h22.07.941,SOLO_PROJECT_EXPERIMENT_NUTAN_KAIN_AU2220019,2024.1.5,None,2024-12-03 20h22.27.743613 +0530,
,,,,35,0,35,0,382.46933769999305,,,,,,,,,,,,,,,,,,,,,,,,,,,,,,,,,,,,,,,,,,,,,,,,,,,,,,,,,,,,,,,382.4562926000217,382.46933769999305,382.46933769999305,382.46933769999305,382.46933769999305,382.46933769999305,382.46933769999305,382.46933769999305,0.0013535000034607947,382.46933769999305,384.4352757000015,[-0.13802083333333334],[-0.06901041666666667],[1],[0],[0],[1.9773445000173524],[1],['clear_anger'],384.43687119998503,384.45057490002364,0.0006071000243537128,384.45057490002364,384.45057490002364,384.45057490002364,384.45057490002364,384.45057490002364,384.45057490002364,384.45057490002364,387.83276150003076,[-0.08333333333333333],[0.3776041666666667],[1],[0],[0],[3.394657399971038],[1],['clear_anger_main'],,,,05T,001,2024-12-03_20h22.07.941,SOLO_PROJECT_EXPERIMENT_NUTAN_KAIN_AU2220019,2024.1.5,None,2024-12-03 20h22.27.743613 +0530,
,,,,36,0,36,0,387.8469959999784,,,,,,,,,,,,,,,,,,,,,,,,,,,,,,,,,,,,,,,,,,,,,,,,,,,,,,,,,,,,,,,387.8344972000341,387.8469959999784,387.8469959999784,387.8469959999784,387.8469959999784,387.8469959999784,387.8469959999784,387.8469959999784,0.0009071999811567366,387.8469959999784,392.46320410002954,[0.14713541666666666],[0.08723958333333333],[1],[0],[0],[4.627027300011832],[1],['clear_anger'],392.4656609999947,392.4790178000112,0.0009553999989293516,392.4790178000112,392.4790178000112,392.4790178000112,392.4790178000112,392.4790178000112,392.4790178000112,392.4790178000112,394.77518200001214,[-0.20442708333333334],[-0.3463541666666667],[1],[0],[0],[2.308041399985086],[1],['clear_anger_main'],,,,05T,001,2024-12-03_20h22.07.941,SOLO_PROJECT_EXPERIMENT_NUTAN_KAIN_AU2220019,2024.1.5,None,2024-12-03 20h22.27.743613 +0530,
,,,,37,0,37,0,394.79110730002867,,,,,,,,,,,,,,,,,,,,,,,,,,,,,,,,,,,,,,,,,,,,,,,,,,,,,,,,,,,,,,,394.7768741000327,394.79110730002867,394.79110730002867,394.79110730002867,394.79110730002867,394.79110730002867,394.79110730002867,394.79110730002867,0.00095699995290488,394.79110730002867,397.0409407999832,[-0.0013020833333333333],[-0.17578125],[1],[0],[0],[2.2627166000311263],[1],['clear_anger'],397.0424586000154,397.055334899982,0.0007047000108286738,397.055334899982,397.055334899982,397.055334899982,397.055334899982,397.055334899982,397.055334899982,397.055334899982,398.4568675000337,[-0.3190104166666667],[0.328125],[1],[0],[0],[1.4129856000072323],[1],['clear_anger_main'],,,,05T,001,2024-12-03_20h22.07.941,SOLO_PROJECT_EXPERIMENT_NUTAN_KAIN_AU2220019,2024.1.5,None,2024-12-03 20h22.27.743613 +0530,
,,,,38,0,38,0,398.4706751999911,,,,,,,,,,,,,,,,,,,,,,,,,,,,,,,,,,,,,,,,,,,,,,,,,,,,,,,,,,,,,,,398.459031699982,398.4706751999911,398.4706751999911,398.4706751999911,398.4706751999911,398.4706751999911,398.4706751999911,398.4706751999911,0.0011018000077456236,398.4706751999911,399.9377273999853,[-0.171875],[0.14322916666666666],[1],[0],[0],[1.4774896999588236],[1],['clear_anger'],399.93888949998654,399.95254139997996,0.0005014999769628048,399.95254139997996,399.95254139997996,399.95254139997996,399.95254139997996,399.95254139997996,399.95254139997996,399.95254139997996,401.821932699997,[0.3216145833333333],[-0.3997395833333333],[1],[0],[0],[1.8816785999806598],[1],['clear_anger_main'],,,,05T,001,2024-12-03_20h22.07.941,SOLO_PROJECT_EXPERIMENT_NUTAN_KAIN_AU2220019,2024.1.5,None,2024-12-03 20h22.27.743613 +0530,
,,,,39,0,39,0,401.8386238000239,,,,,,,,,,,,,,,,,,,,,,,,,,,,,,,,,,,,,,,,,,,,,,,,,,,,,,,,,,,,,,,401.82523030001903,401.8386238000239,401.8386238000239,401.8386238000239,401.8386238000239,401.8386238000239,401.8386238000239,401.8386238000239,0.0016695000231266022,401.8386238000239,403.48365100001683,[-0.0859375],[-0.3216145833333333],[1],[0],[0],[1.656647800002247],[],[],403.48542939999606,403.4993387000286,0.0007128000142984092,403.4993387000286,403.4993387000286,403.4993387000286,403.4993387000286,403.4993387000286,403.4993387000286,403.4993387000286,405.0152387000271,[0.2838541666666667],[-0.2825520833333333],[1],[0],[0],[1.5285436999984086],[1],['clear_anger_main'],,,,05T,001,2024-12-03_20h22.07.941,SOLO_PROJECT_EXPERIMENT_NUTAN_KAIN_AU2220019,2024.1.5,None,2024-12-03 20h22.27.743613 +0530,
,,,,40,0,40,0,405.03088039997965,,,,,,,,,,,,,,,,,,,,,,,,,,,,,,,,,,,,,,,,,,,,,,,,,,,,,,,,,,,,,,,405.01662980002584,405.03088039997965,405.03088039997965,405.03088039997965,405.03088039997965,405.03088039997965,405.03088039997965,405.03088039997965,0.0007742999587208033,405.03088039997965,406.74877579999156,[0.0390625],[-0.4322916666666667],[1],[0],[0],[1.730572700034827],[1],['clear_anger'],406.7510534999892,406.7656769999885,0.0009427000186406076,406.7656769999885,406.7656769999885,406.7656769999885,406.7656769999885,406.7656769999885,406.7656769999885,406.7656769999885,408.08020239998586,[-0.23307291666666666],[0.3580729166666667],[1],[0],[0],[1.3276127999997698],[1],['clear_anger_main'],,,,05T,001,2024-12-03_20h22.07.941,SOLO_PROJECT_EXPERIMENT_NUTAN_KAIN_AU2220019,2024.1.5,None,2024-12-03 20h22.27.743613 +0530,
,,,,41,0,41,0,408.09406159998616,,,,,,,,,,,,,,,,,,,,,,,,,,,,,,,,,,,,,,,,,,,,,,,,,,,,,,,,,,,,,,,408.08181380003225,408.09406159998616,408.09406159998616,408.09406159998616,408.09406159998616,408.09406159998616,408.09406159998616,408.09406159998616,0.000916199991479516,408.09406159998616,409.9946591000189,[-0.16927083333333334],[0.2708333333333333],[1],[0],[0],[1.911403900012374],[1],['clear_anger'],409.99626980000176,410.00906930002384,0.0006588000105693936,410.00906930002384,410.00906930002384,410.00906930002384,410.00906930002384,410.00906930002384,410.00906930002384,410.00906930002384,411.7762350999983,[0.3619791666666667],[0.36328125],[1],[0],[0],[1.7786177000380121],[1],['clear_anger_main'],,,,05T,001,2024-12-03_20h22.07.941,SOLO_PROJECT_EXPERIMENT_NUTAN_KAIN_AU2220019,2024.1.5,None,2024-12-03 20h22.27.743613 +0530,
,,,,42,0,42,0,411.79060850001406,,,,,,,,,,,,,,,,,,,,,,,,,,,,,,,,,,,,,,,,,,,,,,,,,,,,,,,,,,,,,,,411.7780643000151,411.79060850001406,411.79060850001406,411.79060850001406,411.79060850001406,411.79060850001406,411.79060850001406,411.79060850001406,0.0009926999919116497,411.79060850001406,414.0908967999858,[0.2669270833333333],[0.3333333333333333],[1],[0],[0],[2.311455500021111],[1],['clear_anger'],414.0923960999935,414.105213599978,0.0007268000044859946,414.105213599978,414.105213599978,414.105213599978,414.105213599978,414.105213599978,414.105213599978,414.105213599978,415.2734889999847,[0.2825520833333333],[0.3736979166666667],[1],[0],[0],[1.1797586000175215],[1],['clear_anger_main'],,,,05T,001,2024-12-03_20h22.07.941,SOLO_PROJECT_EXPERIMENT_NUTAN_KAIN_AU2220019,2024.1.5,None,2024-12-03 20h22.27.743613 +0530,
,,,,43,0,43,0,415.28734049998457,,,,,,,,,,,,,,,,,,,,,,,,,,,,,,,,,,,,,,,,,,,,,,,,,,,,,,,,,,,,,,,415.2752954000025,415.28734049998457,415.28734049998457,415.28734049998457,415.28734049998457,415.28734049998457,415.28734049998457,415.28734049998457,0.0010115000186488032,415.28734049998457,417.32184920000145,[-0.16536458333333334],[-0.23958333333333334],[1],[0],[0],[2.0448566999984905],[1],['clear_anger'],417.3236956000328,417.3354602000327,0.0007807000074535608,417.3354602000327,417.3354602000327,417.3354602000327,417.3354602000327,417.3354602000327,417.3354602000327,417.3354602000327,418.86934049997944,[-0.4205729166666667],[-0.3828125],[1],[0],[0],[1.5442065000534058],[1],['clear_anger_main'],,,,05T,001,2024-12-03_20h22.07.941,SOLO_PROJECT_EXPERIMENT_NUTAN_KAIN_AU2220019,2024.1.5,None,2024-12-03 20h22.27.743613 +0530,
,,,,44,0,44,0,418.88360539998394,,,,,,,,,,,,,,,,,,,,,,,,,,,,,,,,,,,,,,,,,,,,,,,,,,,,,,,,,,,,,,,418.87095750001026,418.88360539998394,418.88360539998394,418.88360539998394,418.88360539998394,418.88360539998394,418.88360539998394,418.88360539998394,0.0009322999976575375,418.88360539998394,420.16836140002124,[0.10677083333333333],[-0.2799479166666667],[1],[0],[0],[1.2960690999752842],[1],['clear_anger'],420.17001459997846,420.18246169999475,0.0007828999659977853,420.18246169999475,420.18246169999475,420.18246169999475,420.18246169999475,420.18246169999475,420.18246169999475,420.18246169999475,421.8493743999861,[0.2421875],[-0.19140625],[1],[0],[0],[1.6779753000009805],[1],['clear_anger_main'],,,,05T,001,2024-12-03_20h22.07.941,SOLO_PROJECT_EXPERIMENT_NUTAN_KAIN_AU2220019,2024.1.5,None,2024-12-03 20h22.27.743613 +0530,
,,,,45,0,45,0,421.86436850001337,,,,,,,,,,,,,,,,,,,,,,,,,,,,,,,,,,,,,,,,,,,,,,,,,,,,,,,,,,,,,,,421.851238000032,421.86436850001337,421.86436850001337,421.86436850001337,421.86436850001337,421.86436850001337,421.86436850001337,421.86436850001337,0.001028600032441318,421.86436850001337,423.54757370002335,[0.24348958333333334],[0.3658854166666667],[1],[0],[0],[1.6950277999858372],[1],['clear_anger'],423.5489616999985,423.5628319000243,0.000584400026127696,423.5628319000243,423.5628319000243,423.5628319000243,423.5628319000243,423.5628319000243,423.5628319000243,423.5628319000243,425.8964838000247,[0.18229166666666666],[0.46875],[1],[0],[0],[2.34628120000707],[1],['clear_anger_main'],,,,05T,001,2024-12-03_20h22.07.941,SOLO_PROJECT_EXPERIMENT_NUTAN_KAIN_AU2220019,2024.1.5,None,2024-12-03 20h22.27.743613 +0530,
,,,,46,0,46,0,425.9101921999827,,,,,,,,,,,,,,,,,,,,,,,,,,,,,,,,,,,,,,,,,,,,,,,,,,,,,,,,,,,,,,,425.8983971999842,425.9101921999827,425.9101921999827,425.9101921999827,425.9101921999827,425.9101921999827,425.9101921999827,425.9101921999827,0.0010888000251725316,425.9101921999827,427.56084619998,[0.0390625],[-0.049479166666666664],[1],[0],[0],[1.6610116999945603],[1],['clear_anger'],427.56227140000556,427.5755955000059,0.0006619999767281115,427.5755955000059,427.5755955000059,427.5755955000059,427.5755955000059,427.5755955000059,427.5755955000059,427.5755955000059,430.44157949998043,[-0.03515625],[0.08984375],[1],[0],[0],[2.8779287000070326],[],[],,,,05T,001,2024-12-03_20h22.07.941,SOLO_PROJECT_EXPERIMENT_NUTAN_KAIN_AU2220019,2024.1.5,None,2024-12-03 20h22.27.743613 +0530,
,,,,47,0,47,0,430.455736599979,,,,,,,,,,,,,,,,,,,,,,,,,,,,,,,,,,,,,,,,,,,,,,,,,,,,,,,,,,,,,,,430.4435884000268,430.455736599979,430.455736599979,430.455736599979,430.455736599979,430.455736599979,430.455736599979,430.455736599979,0.0010735999676398933,430.455736599979,431.5585766999866,[0.0390625],[0.020833333333333332],[1],[0],[0],[1.113446399976965],[1],['clear_anger'],431.5604422999895,431.5720704999985,0.000790199963375926,431.5720704999985,431.5720704999985,431.5720704999985,431.5720704999985,431.5720704999985,431.5720704999985,431.5720704999985,432.6048688000301,[-0.13932291666666666],[-0.009114583333333334],[1],[0],[0],[1.0430011000134982],[1],['clear_anger_main'],,,,05T,001,2024-12-03_20h22.07.941,SOLO_PROJECT_EXPERIMENT_NUTAN_KAIN_AU2220019,2024.1.5,None,2024-12-03 20h22.27.743613 +0530,
,,,,48,0,48,0,432.62051670002984,,,,,,,,,,,,,,,,,,,,,,,,,,,,,,,,,,,,,,,,,,,,,,,,,,,,,,,,,,,,,,,432.60674700001255,432.62051670002984,432.62051670002984,432.62051670002984,432.62051670002984,432.62051670002984,432.62051670002984,432.62051670002984,0.0011125999735668302,432.62051670002984,433.7043646000093,[-0.24479166666666666],[-0.009114583333333334],[1],[0],[0],[1.0962325999862514],[1],['clear_anger'],433.70575770002324,433.71957339998335,0.0005534999654628336,433.71957339998335,433.71957339998335,433.71957339998335,433.71957339998335,433.71957339998335,433.71957339998335,433.71957339998335,434.86971619998803,[-0.06770833333333333],[-0.203125],[1],[0],[0],[1.1628788000089116],[1],['clear_anger_main'],,,,05T,001,2024-12-03_20h22.07.941,SOLO_PROJECT_EXPERIMENT_NUTAN_KAIN_AU2220019,2024.1.5,None,2024-12-03 20h22.27.743613 +0530,
,,,,49,0,49,0,434.8845648000133,,,,,,,,,,,,,,,,,,,,,,,,,,,,,,,,,,,,,,,,,,,,,,,,,,,,,,,,,,,,,,,434.8711751999799,434.8845648000133,434.8845648000133,434.8845648000133,434.8845648000133,434.8845648000133,434.8845648000133,434.8845648000133,0.0008906999719329178,434.8845648000133,436.2356764000142,[-0.026041666666666668],[-0.3671875],[1],[0],[0],[1.3630687999539077],[1],['clear_anger'],436.23790549999103,436.2501793000265,0.0008710999973118305,436.2501793000265,436.2501793000265,436.2501793000265,436.2501793000265,436.2501793000265,436.2501793000265,436.2501793000265,437.35143739997875,[0.14583333333333334],[0.07682291666666667],[1],[0],[0],[1.1119381000171416],[1],['clear_anger_main'],,,,05T,001,2024-12-03_20h22.07.941,SOLO_PROJECT_EXPERIMENT_NUTAN_KAIN_AU2220019,2024.1.5,None,2024-12-03 20h22.27.743613 +0530,
,,,,,,,,,,,,,,,,,,,,,,,,,,,,,,,,,,,,,,,,,,,,,,,,,,,,,,,,,,,,,,,,,,,,,,,,,,,,,,,,,,,,,,,,,,,,,,,,,,,,,,,,,,,,,437.35351550002815,437.3661611999851,440.3645886000013,05T,001,2024-12-03_20h22.07.941,SOLO_PROJECT_EXPERIMENT_NUTAN_KAIN_AU2220019,2024.1.5,None,2024-12-03 20h22.27.743613 +0530,
