loop_1.thisRepN,loop_1.thisTrialN,loop_1.thisN,loop_1.thisIndex,loop_2.thisRepN,loop_2.thisTrialN,loop_2.thisN,loop_2.thisIndex,thisRow.t,notes,guidelines.started,text.started,key_resp.started,guidelines.stopped,key_resp.keys,key_resp.rt,key_resp.duration,find_1.started,text_2.started,find_image_1.started,key_resp_2.started,find_1.stopped,key_resp_2.keys,key_resp_2.rt,key_resp_2.duration,baseline_sa.started,subtle_anger.started,n_1.started,n_2.started,n_3.started,n_4.started,n_5.started,n_6.started,mouse_resp.started,fix_1.started,baseline_sa.stopped,mouse_resp.x,mouse_resp.y,mouse_resp.leftButton,mouse_resp.midButton,mouse_resp.rightButton,mouse_resp.time,mouse_resp.corr,mouse_resp.clicked_name,main_sa.started,subtle_anger_main.started,mouse_resp_4.started,d_1.started,d_2.started,d_3.started,s_1.started,s_2.started,s_3.started,fix_2.started,main_sa.stopped,mouse_resp_4.x,mouse_resp_4.y,mouse_resp_4.leftButton,mouse_resp_4.midButton,mouse_resp_4.rightButton,mouse_resp_4.time,mouse_resp_4.corr,mouse_resp_4.clicked_name,find_3.started,text_4.started,key_resp_4.started,find_image__.started,find_3.stopped,key_resp_4.keys,key_resp_4.rt,key_resp_4.duration,baseline_ca.started,clear_anger.started,n_7.started,n_8.started,n_9.started,n_10.started,n_11.started,n_12.started,mouse_resp_3.started,fix_3.started,baseline_ca.stopped,mouse_resp_3.x,mouse_resp_3.y,mouse_resp_3.leftButton,mouse_resp_3.midButton,mouse_resp_3.rightButton,mouse_resp_3.time,mouse_resp_3.corr,mouse_resp_3.clicked_name,main_ca.started,clear_anger_main.started,mouse_resp_5.started,d_4.started,d_5.started,d_6.started,s_4.started,s_5.started,s_6.started,fix_4.started,main_ca.stopped,mouse_resp_5.x,mouse_resp_5.y,mouse_resp_5.leftButton,mouse_resp_5.midButton,mouse_resp_5.rightButton,mouse_resp_5.time,mouse_resp_5.corr,mouse_resp_5.clicked_name,thank_you.started,thanks.started,thank_you.stopped,participant,session,date,expName,psychopyVersion,frameRate,expStart,
,,,,,,,,,,0.0037198999780230224,0.014784300001338124,0.014784300001338124,20.95441770000616,space,20.924667400016915,None,,,,,,,,,,,,,,,,,,,,,,,,,,,,,,,,,,,,,,,,,,,,,,,,,,,,,,,,,,,,,,,,,,,,,,,,,,,,,,,,,,,,,,,,,,,,,,,,06D,001,2024-12-03_20h30.18.025,SOLO_PROJECT_EXPERIMENT_NUTAN_KAIN_AU2220019,2024.1.5,None,2024-12-03 20h30.36.527776 +0530,
,,,,,,,,,,,,,,,,,20.954486400005408,21.023194100009277,21.023194100009277,21.023194100009277,34.251127999974415,space,13.2237887000083,None,,,,,,,,,,,,,,,,,,,,,,,,,,,,,,,,,,,,,,,,,,,,,,,,,,,,,,,,,,,,,,,,,,,,,,,,,,,,,,,,,,,,,,,,06D,001,2024-12-03_20h30.18.025,SOLO_PROJECT_EXPERIMENT_NUTAN_KAIN_AU2220019,2024.1.5,None,2024-12-03 20h30.36.527776 +0530,
0,0,0,0,,,,,34.3761220999877,,,,,,,,,,,,,,,,,34.25405079999473,34.3761220999877,34.3761220999877,34.3761220999877,34.3761220999877,34.3761220999877,34.3761220999877,34.3761220999877,0.003974699997343123,34.3761220999877,36.33374739997089,[0.21484375],[-0.2265625],[1],[0],[0],[2.077479300030973],[1],['subtle_anger'],36.33927459997358,36.56585419998737,0.0009530999814160168,36.56585419998737,36.56585419998737,36.56585419998737,36.56585419998737,36.56585419998737,36.56585419998737,36.56585419998737,38.2977715000161,[-0.4322916666666667],[0.421875],[1],[0],[0],[1.9566545999841765],[1],['subtle_anger_main'],,,,,,,,,,,,,,,,,,,,,,,,,,,,,,,,,,,,,,,,,,,,,,,,,,06D,001,2024-12-03_20h30.18.025,SOLO_PROJECT_EXPERIMENT_NUTAN_KAIN_AU2220019,2024.1.5,None,2024-12-03 20h30.36.527776 +0530,
1,0,1,0,,,,,38.314772000012454,,,,,,,,,,,,,,,,,38.30218150001019,38.314772000012454,38.314772000012454,38.314772000012454,38.314772000012454,38.314772000012454,38.314772000012454,38.314772000012454,0.0013978999922983348,38.314772000012454,40.16083169996273,[-0.16536458333333334],[-0.21484375],[1],[0],[0],[1.8568452000035904],[1],['subtle_anger'],40.16226289997576,40.17499480000697,0.0006919000297784805,40.17499480000697,40.17499480000697,40.17499480000697,40.17499480000697,40.17499480000697,40.17499480000697,40.17499480000697,42.4575914000161,[0.3450520833333333],[0.19921875],[1],[0],[0],[2.2939047000254504],[1],['subtle_anger_main'],,,,,,,,,,,,,,,,,,,,,,,,,,,,,,,,,,,,,,,,,,,,,,,,,,06D,001,2024-12-03_20h30.18.025,SOLO_PROJECT_EXPERIMENT_NUTAN_KAIN_AU2220019,2024.1.5,None,2024-12-03 20h30.36.527776 +0530,
2,0,2,0,,,,,42.47232509998139,,,,,,,,,,,,,,,,,42.45965490001254,42.47232509998139,42.47232509998139,42.47232509998139,42.47232509998139,42.47232509998139,42.47232509998139,42.47232509998139,0.0012165000080130994,42.47232509998139,44.127757199981716,[0.16927083333333334],[-0.4856770833333333],[1],[0],[0],[1.6658611000166275],[1],['subtle_anger'],44.13078860001406,44.14955789997475,0.001449699979275465,44.14955789997475,44.14955789997475,44.14955789997475,44.14955789997475,44.14955789997475,44.14955789997475,44.14955789997475,45.72285499999998,[0.3645833333333333],[0.1484375],[1],[0],[0],[1.58973629999673],[1],['subtle_anger_main'],,,,,,,,,,,,,,,,,,,,,,,,,,,,,,,,,,,,,,,,,,,,,,,,,,06D,001,2024-12-03_20h30.18.025,SOLO_PROJECT_EXPERIMENT_NUTAN_KAIN_AU2220019,2024.1.5,None,2024-12-03 20h30.36.527776 +0530,
3,0,3,0,,,,,45.74047459999565,,,,,,,,,,,,,,,,,45.72625359997619,45.74047459999565,45.74047459999565,45.74047459999565,45.74047459999565,45.74047459999565,45.74047459999565,45.74047459999565,0.0018390999757684767,45.74047459999565,47.93575989996316,[-0.43359375],[-0.20052083333333334],[1],[0],[0],[2.2074419999844395],[1],['subtle_anger'],47.93756729998859,47.952035399968736,0.00085350003791973,47.952035399968736,47.952035399968736,47.952035399968736,47.952035399968736,47.952035399968736,47.952035399968736,47.952035399968736,50.28316170000471,[-0.3515625],[0.10026041666666667],[1],[0],[0],[2.344094200001564],[1],['subtle_anger_main'],,,,,,,,,,,,,,,,,,,,,,,,,,,,,,,,,,,,,,,,,,,,,,,,,,06D,001,2024-12-03_20h30.18.025,SOLO_PROJECT_EXPERIMENT_NUTAN_KAIN_AU2220019,2024.1.5,None,2024-12-03 20h30.36.527776 +0530,
4,0,4,0,,,,,50.29833399999188,,,,,,,,,,,,,,,,,50.284880799998064,50.29833399999188,50.29833399999188,50.29833399999188,50.29833399999188,50.29833399999188,50.29833399999188,50.29833399999188,0.0010270000202581286,50.29833399999188,52.09940339997411,[0.3333333333333333],[0.3424479166666667],[1],[0],[0],[1.8130629999795929],[1],['subtle_anger'],52.10133540001698,52.11289119999856,0.0008926999871619046,52.11289119999856,52.11289119999856,52.11289119999856,52.11289119999856,52.11289119999856,52.11289119999856,52.11289119999856,54.629719299962744,[-0.25],[0.3268229166666667],[1],[0],[0],[2.526721699978225],[1],['subtle_anger_main'],,,,,,,,,,,,,,,,,,,,,,,,,,,,,,,,,,,,,,,,,,,,,,,,,,06D,001,2024-12-03_20h30.18.025,SOLO_PROJECT_EXPERIMENT_NUTAN_KAIN_AU2220019,2024.1.5,None,2024-12-03 20h30.36.527776 +0530,
5,0,5,0,,,,,54.644274799968116,,,,,,,,,,,,,,,,,54.63226019998547,54.644274799968116,54.644274799968116,54.644274799968116,54.644274799968116,54.644274799968116,54.644274799968116,54.644274799968116,0.0013381000026129186,54.644274799968116,56.56171290000202,[0.045572916666666664],[0.3541666666666667],[1],[0],[0],[1.9278989000013098],[1],['subtle_anger'],56.56320319999941,56.57551120000426,0.0006188999977894127,56.57551120000426,56.57551120000426,56.57551120000426,56.57551120000426,56.57551120000426,56.57551120000426,56.57551120000426,58.2101638999884,[0.045572916666666664],[0.3541666666666667],[1],[0],[0],[1.645662299997639],[1],['subtle_anger_main'],,,,,,,,,,,,,,,,,,,,,,,,,,,,,,,,,,,,,,,,,,,,,,,,,,06D,001,2024-12-03_20h30.18.025,SOLO_PROJECT_EXPERIMENT_NUTAN_KAIN_AU2220019,2024.1.5,None,2024-12-03 20h30.36.527776 +0530,
6,0,6,0,,,,,58.22330939996755,,,,,,,,,,,,,,,,,58.212147400015965,58.22330939996755,58.22330939996755,58.22330939996755,58.22330939996755,58.22330939996755,58.22330939996755,58.22330939996755,0.0009385000448673964,58.22330939996755,60.374100799963344,[-0.08072916666666667],[0.21223958333333334],[1],[0],[0],[2.1605501999729313],[1],['subtle_anger'],60.375844899972435,60.38764099997934,0.0007161000394262373,60.38764099997934,60.38764099997934,60.38764099997934,60.38764099997934,60.38764099997934,60.38764099997934,60.38764099997934,62.876204299973324,[0.13671875],[-0.1328125],[1],[0],[0],[2.498470399994403],[],[],,,,,,,,,,,,,,,,,,,,,,,,,,,,,,,,,,,,,,,,,,,,,,,,,,06D,001,2024-12-03_20h30.18.025,SOLO_PROJECT_EXPERIMENT_NUTAN_KAIN_AU2220019,2024.1.5,None,2024-12-03 20h30.36.527776 +0530,
7,0,7,0,,,,,62.89401509996969,,,,,,,,,,,,,,,,,62.87962459999835,62.89401509996969,62.89401509996969,62.89401509996969,62.89401509996969,62.89401509996969,62.89401509996969,62.89401509996969,0.0019119000062346458,62.89401509996969,64.95279189996654,[0.22005208333333334],[0.22916666666666666],[1],[0],[0],[2.070978700008709],[1],['subtle_anger'],64.95554120000452,64.97191510000266,0.0013040000339969993,64.97191510000266,64.97191510000266,64.97191510000266,64.97191510000266,64.97191510000266,64.97191510000266,64.97191510000266,66.81827589997556,[-0.045572916666666664],[-0.13671875],[1],[0],[0],[1.8605314000160433],[1],['subtle_anger_main'],,,,,,,,,,,,,,,,,,,,,,,,,,,,,,,,,,,,,,,,,,,,,,,,,,06D,001,2024-12-03_20h30.18.025,SOLO_PROJECT_EXPERIMENT_NUTAN_KAIN_AU2220019,2024.1.5,None,2024-12-03 20h30.36.527776 +0530,
8,0,8,0,,,,,66.83313179999823,,,,,,,,,,,,,,,,,66.82100220001303,66.83313179999823,66.83313179999823,66.83313179999823,66.83313179999823,66.83313179999823,66.83313179999823,66.83313179999823,0.0014121999847702682,66.83313179999823,70.66515660000732,[0.4322916666666667],[0.10677083333333333],[1],[0],[0],[3.8423720999853685],[1],['subtle_anger'],70.66703219996998,70.67894359998172,0.0008459999808110297,70.67894359998172,70.67894359998172,70.67894359998172,70.67894359998172,70.67894359998172,70.67894359998172,70.67894359998172,72.39905369997723,[0.140625],[-0.1171875],[1],[0],[0],[1.7298301000264473],[1],['subtle_anger_main'],,,,,,,,,,,,,,,,,,,,,,,,,,,,,,,,,,,,,,,,,,,,,,,,,,06D,001,2024-12-03_20h30.18.025,SOLO_PROJECT_EXPERIMENT_NUTAN_KAIN_AU2220019,2024.1.5,None,2024-12-03 20h30.36.527776 +0530,
9,0,9,0,,,,,72.41810329997679,,,,,,,,,,,,,,,,,72.40293380001094,72.41810329997679,72.41810329997679,72.41810329997679,72.41810329997679,72.41810329997679,72.41810329997679,72.41810329997679,0.0019527999684214592,72.41810329997679,74.89345329999924,[0.0013020833333333333],[0.3828125],[1],[0],[0],[2.488076400011778],[1],['subtle_anger'],74.89590359997237,74.9084659999935,0.0009488000068813562,74.9084659999935,74.9084659999935,74.9084659999935,74.9084659999935,74.9084659999935,74.9084659999935,74.9084659999935,76.97408750001341,[0.12760416666666666],[-0.23177083333333334],[1],[0],[0],[2.07642640004633],[1],['subtle_anger_main'],,,,,,,,,,,,,,,,,,,,,,,,,,,,,,,,,,,,,,,,,,,,,,,,,,06D,001,2024-12-03_20h30.18.025,SOLO_PROJECT_EXPERIMENT_NUTAN_KAIN_AU2220019,2024.1.5,None,2024-12-03 20h30.36.527776 +0530,
10,0,10,0,,,,,76.98836550000124,,,,,,,,,,,,,,,,,76.9761262999964,76.98836550000124,76.98836550000124,76.98836550000124,76.98836550000124,76.98836550000124,76.98836550000124,76.98836550000124,0.001125300012063235,76.98836550000124,78.59232049999991,[0.31640625],[0.06770833333333333],[1],[0],[0],[1.6143112000427209],[1],['subtle_anger'],78.59476090001408,78.60679719998734,0.0010451999842189252,78.60679719998734,78.60679719998734,78.60679719998734,78.60679719998734,78.60679719998734,78.60679719998734,78.60679719998734,80.5214527999633,[-0.4244791666666667],[-0.06640625],[1],[0],[0],[1.9249302999814972],[1],['subtle_anger_main'],,,,,,,,,,,,,,,,,,,,,,,,,,,,,,,,,,,,,,,,,,,,,,,,,,06D,001,2024-12-03_20h30.18.025,SOLO_PROJECT_EXPERIMENT_NUTAN_KAIN_AU2220019,2024.1.5,None,2024-12-03 20h30.36.527776 +0530,
11,0,11,0,,,,,80.53498980001314,,,,,,,,,,,,,,,,,80.5236493999837,80.53498980001314,80.53498980001314,80.53498980001314,80.53498980001314,80.53498980001314,80.53498980001314,80.53498980001314,0.0010246000019833446,80.53498980001314,82.50175279995892,[0.2903645833333333],[0.3463541666666667],[1],[0],[0],[1.9766451999894343],[1],['subtle_anger'],82.50335469999118,82.51653919997625,0.0006405999884009361,82.51653919997625,82.51653919997625,82.51653919997625,82.51653919997625,82.51653919997625,82.51653919997625,82.51653919997625,84.03466479998315,[-0.140625],[-0.22005208333333334],[1],[0],[0],[1.5299298000172712],[1],['subtle_anger_main'],,,,,,,,,,,,,,,,,,,,,,,,,,,,,,,,,,,,,,,,,,,,,,,,,,06D,001,2024-12-03_20h30.18.025,SOLO_PROJECT_EXPERIMENT_NUTAN_KAIN_AU2220019,2024.1.5,None,2024-12-03 20h30.36.527776 +0530,
12,0,12,0,,,,,84.04867250000825,,,,,,,,,,,,,,,,,84.03694419999374,84.04867250000825,84.04867250000825,84.04867250000825,84.04867250000825,84.04867250000825,84.04867250000825,84.04867250000825,0.0014417000347748399,84.04867250000825,86.28187409997918,[0.09244791666666667],[-0.024739583333333332],[1],[0],[0],[2.2433173999888822],[1],['subtle_anger'],86.2835184999858,86.29639520001365,0.0008071000338532031,86.29639520001365,86.29639520001365,86.29639520001365,86.29639520001365,86.29639520001365,86.29639520001365,86.29639520001365,88.87865749996854,[-0.390625],[-0.265625],[1],[0],[0],[2.5936561000416987],[1],['subtle_anger_main'],,,,,,,,,,,,,,,,,,,,,,,,,,,,,,,,,,,,,,,,,,,,,,,,,,06D,001,2024-12-03_20h30.18.025,SOLO_PROJECT_EXPERIMENT_NUTAN_KAIN_AU2220019,2024.1.5,None,2024-12-03 20h30.36.527776 +0530,
13,0,13,0,,,,,88.89314689999446,,,,,,,,,,,,,,,,,88.88060309999855,88.89314689999446,88.89314689999446,88.89314689999446,88.89314689999446,88.89314689999446,88.89314689999446,88.89314689999446,0.0010374999837949872,88.89314689999446,90.82676909997826,[-0.22786458333333334],[-0.421875],[1],[0],[0],[1.9448281000368297],[1],['subtle_anger'],90.82814659998985,90.84191269997973,0.0006710999878123403,90.84191269997973,90.84191269997973,90.84191269997973,90.84191269997973,90.84191269997973,90.84191269997973,90.84191269997973,93.0422543999739,[0.13541666666666666],[0.14192708333333334],[1],[0],[0],[2.2127359999576584],[1],['subtle_anger_main'],,,,,,,,,,,,,,,,,,,,,,,,,,,,,,,,,,,,,,,,,,,,,,,,,,06D,001,2024-12-03_20h30.18.025,SOLO_PROJECT_EXPERIMENT_NUTAN_KAIN_AU2220019,2024.1.5,None,2024-12-03 20h30.36.527776 +0530,
14,0,14,0,,,,,93.05653800000437,,,,,,,,,,,,,,,,,93.04478799999924,93.05653800000437,93.05653800000437,93.05653800000437,93.05653800000437,93.05653800000437,93.05653800000437,93.05653800000437,0.001548499974887818,93.05653800000437,95.07303799997317,[0.125],[0.12109375],[1],[0],[0],[2.026444199960679],[1],['subtle_anger'],95.07477569999173,95.08791709999787,0.0007713999948464334,95.08791709999787,95.08791709999787,95.08791709999787,95.08791709999787,95.08791709999787,95.08791709999787,95.08791709999787,98.93622410000535,[-0.33203125],[-0.171875],[1],[0],[0],[3.859746499976609],[1],['subtle_anger_main'],,,,,,,,,,,,,,,,,,,,,,,,,,,,,,,,,,,,,,,,,,,,,,,,,,06D,001,2024-12-03_20h30.18.025,SOLO_PROJECT_EXPERIMENT_NUTAN_KAIN_AU2220019,2024.1.5,None,2024-12-03 20h30.36.527776 +0530,
15,0,15,0,,,,,98.95475889998488,,,,,,,,,,,,,,,,,98.93957149999915,98.95475889998488,98.95475889998488,98.95475889998488,98.95475889998488,98.95475889998488,98.95475889998488,98.95475889998488,0.0022136999759823084,98.95475889998488,100.83422189997509,[0.3046875],[0.49609375],[1],[0],[0],[1.8923139999969862],[1],['subtle_anger'],100.83572219999041,100.84797900001286,0.0006427000043913722,100.84797900001286,100.84797900001286,100.84797900001286,100.84797900001286,100.84797900001286,100.84797900001286,100.84797900001286,103.0817393999896,[-0.006510416666666667],[-0.3841145833333333],[1],[0],[0],[2.2448137999745086],[1],['subtle_anger_main'],,,,,,,,,,,,,,,,,,,,,,,,,,,,,,,,,,,,,,,,,,,,,,,,,,06D,001,2024-12-03_20h30.18.025,SOLO_PROJECT_EXPERIMENT_NUTAN_KAIN_AU2220019,2024.1.5,None,2024-12-03 20h30.36.527776 +0530,
16,0,16,0,,,,,103.09613989997888,,,,,,,,,,,,,,,,,103.08347640000284,103.09613989997888,103.09613989997888,103.09613989997888,103.09613989997888,103.09613989997888,103.09613989997888,103.09613989997888,0.0010564999538473785,103.09613989997888,105.19590900000185,[0.24609375],[-0.3072916666666667],[1],[0],[0],[2.110941199993249],[1],['subtle_anger'],105.19760509999469,105.2110384000116,0.0007613999769091606,105.2110384000116,105.2110384000116,105.2110384000116,105.2110384000116,105.2110384000116,105.2110384000116,105.2110384000116,108.41037619998679,[-0.4296875],[0.4466145833333333],[1],[0],[0],[3.2112364000058733],[1],['subtle_anger_main'],,,,,,,,,,,,,,,,,,,,,,,,,,,,,,,,,,,,,,,,,,,,,,,,,,06D,001,2024-12-03_20h30.18.025,SOLO_PROJECT_EXPERIMENT_NUTAN_KAIN_AU2220019,2024.1.5,None,2024-12-03 20h30.36.527776 +0530,
17,0,17,0,,,,,108.42441539996071,,,,,,,,,,,,,,,,,108.41249610000523,108.42441539996071,108.42441539996071,108.42441539996071,108.42441539996071,108.42441539996071,108.42441539996071,108.42441539996071,0.0011814999743364751,108.42441539996071,109.94210889999522,[-0.3151041666666667],[0.4127604166666667],[1],[0],[0],[1.5279768999898806],[1],['subtle_anger'],109.94395069999155,109.9562988000107,0.0007619000389240682,109.9562988000107,109.9562988000107,109.9562988000107,109.9562988000107,109.9562988000107,109.9562988000107,109.9562988000107,111.62420019996352,[-0.15104166666666666],[-0.24869791666666666],[1],[0],[0],[1.6786175000015646],[1],['subtle_anger_main'],,,,,,,,,,,,,,,,,,,,,,,,,,,,,,,,,,,,,,,,,,,,,,,,,,06D,001,2024-12-03_20h30.18.025,SOLO_PROJECT_EXPERIMENT_NUTAN_KAIN_AU2220019,2024.1.5,None,2024-12-03 20h30.36.527776 +0530,
18,0,18,0,,,,,111.63900959998136,,,,,,,,,,,,,,,,,111.62675279995892,111.63900959998136,111.63900959998136,111.63900959998136,111.63900959998136,111.63900959998136,111.63900959998136,111.63900959998136,0.0015579999890178442,111.63900959998136,114.48713209998095,[-0.40234375],[0.0013020833333333333],[1],[0],[0],[2.8585348000051454],[1],['subtle_anger'],114.48880779999308,114.5020301999757,0.0007039000047370791,114.5020301999757,114.5020301999757,114.5020301999757,114.5020301999757,114.5020301999757,114.5020301999757,114.5020301999757,116.31947519996902,[0.5364583333333334],[0.2994791666666667],[1],[0],[0],[1.8292455000337213],[1],['subtle_anger_main'],,,,,,,,,,,,,,,,,,,,,,,,,,,,,,,,,,,,,,,,,,,,,,,,,,06D,001,2024-12-03_20h30.18.025,SOLO_PROJECT_EXPERIMENT_NUTAN_KAIN_AU2220019,2024.1.5,None,2024-12-03 20h30.36.527776 +0530,
19,0,19,0,,,,,116.33332569996128,,,,,,,,,,,,,,,,,116.32149750000099,116.33332569996128,116.33332569996128,116.33332569996128,116.33332569996128,116.33332569996128,116.33332569996128,116.33332569996128,0.001140100008342415,116.33332569996128,119.31727539998246,[0.375],[0.10546875],[1],[0],[0],[2.9941389999585226],[1],['subtle_anger'],119.31907540000975,119.33059679996222,0.000887200003489852,119.33059679996222,119.33059679996222,119.33059679996222,119.33059679996222,119.33059679996222,119.33059679996222,119.33059679996222,121.76517199998489,[0.4869791666666667],[0.4114583333333333],[1],[0],[0],[2.4442449000198394],[1],['subtle_anger_main'],,,,,,,,,,,,,,,,,,,,,,,,,,,,,,,,,,,,,,,,,,,,,,,,,,06D,001,2024-12-03_20h30.18.025,SOLO_PROJECT_EXPERIMENT_NUTAN_KAIN_AU2220019,2024.1.5,None,2024-12-03 20h30.36.527776 +0530,
20,0,20,0,,,,,121.7817491000169,,,,,,,,,,,,,,,,,121.76885359996231,121.7817491000169,121.7817491000169,121.7817491000169,121.7817491000169,121.7817491000169,121.7817491000169,121.7817491000169,0.0018751000170595944,121.7817491000169,123.39536909997696,[0.4348958333333333],[0.08723958333333333],[1],[0],[0],[1.6245276000117883],[1],['subtle_anger'],123.39715919998707,123.40979499998502,0.0007504000095650554,123.40979499998502,123.40979499998502,123.40979499998502,123.40979499998502,123.40979499998502,123.40979499998502,123.40979499998502,126.67538779997267,[-0.3151041666666667],[-0.14453125],[1],[0],[0],[3.2768257000134327],[1],['subtle_anger_main'],,,,,,,,,,,,,,,,,,,,,,,,,,,,,,,,,,,,,,,,,,,,,,,,,,06D,001,2024-12-03_20h30.18.025,SOLO_PROJECT_EXPERIMENT_NUTAN_KAIN_AU2220019,2024.1.5,None,2024-12-03 20h30.36.527776 +0530,
21,0,21,0,,,,,126.69006230001105,,,,,,,,,,,,,,,,,126.6773511999636,126.69006230001105,126.69006230001105,126.69006230001105,126.69006230001105,126.69006230001105,126.69006230001105,126.69006230001105,0.00107559998286888,126.69006230001105,128.8241440000129,[0.5208333333333334],[-0.2786458333333333],[1],[0],[0],[2.1452508000074886],[1],['subtle_anger'],128.82586069998797,128.83741779997945,0.0008431000169366598,128.83741779997945,128.83741779997945,128.83741779997945,128.83741779997945,128.83741779997945,128.83741779997945,128.83741779997945,130.48880449996796,[0.07291666666666667],[-0.17317708333333334],[1],[0],[0],[1.6612458000308834],[1],['subtle_anger_main'],,,,,,,,,,,,,,,,,,,,,,,,,,,,,,,,,,,,,,,,,,,,,,,,,,06D,001,2024-12-03_20h30.18.025,SOLO_PROJECT_EXPERIMENT_NUTAN_KAIN_AU2220019,2024.1.5,None,2024-12-03 20h30.36.527776 +0530,
22,0,22,0,,,,,130.50387580000097,,,,,,,,,,,,,,,,,130.49173349997727,130.50387580000097,130.50387580000097,130.50387580000097,130.50387580000097,130.50387580000097,130.50387580000097,130.50387580000097,0.001521300000604242,130.50387580000097,132.37057119997917,[-0.09895833333333333],[-0.22916666666666666],[1],[0],[0],[1.8769523000228219],[1],['subtle_anger'],132.3722323999973,132.38404129998526,0.0007845000363886356,132.38404129998526,132.38404129998526,132.38404129998526,132.38404129998526,132.38404129998526,132.38404129998526,132.38404129998526,134.83353880001232,[-0.4322916666666667],[-0.07682291666666667],[1],[0],[0],[2.4599909000098705],[1],['subtle_anger_main'],,,,,,,,,,,,,,,,,,,,,,,,,,,,,,,,,,,,,,,,,,,,,,,,,,06D,001,2024-12-03_20h30.18.025,SOLO_PROJECT_EXPERIMENT_NUTAN_KAIN_AU2220019,2024.1.5,None,2024-12-03 20h30.36.527776 +0530,
23,0,23,0,,,,,134.84845789999235,,,,,,,,,,,,,,,,,134.83490889996756,134.84845789999235,134.84845789999235,134.84845789999235,134.84845789999235,134.84845789999235,134.84845789999235,134.84845789999235,0.000784300034865737,134.84845789999235,136.7330430999864,[0.26953125],[-0.375],[1],[0],[0],[1.8967813000199385],[1],['subtle_anger'],136.73519949999172,136.7472875000094,0.0010171000030823052,136.7472875000094,136.7472875000094,136.7472875000094,136.7472875000094,136.7472875000094,136.7472875000094,136.7472875000094,140.14517999999225,[-0.013020833333333334],[-0.11197916666666667],[1],[0],[0],[3.408164200023748],[1],['subtle_anger_main'],,,,,,,,,,,,,,,,,,,,,,,,,,,,,,,,,,,,,,,,,,,,,,,,,,06D,001,2024-12-03_20h30.18.025,SOLO_PROJECT_EXPERIMENT_NUTAN_KAIN_AU2220019,2024.1.5,None,2024-12-03 20h30.36.527776 +0530,
24,0,24,0,,,,,140.16044359997613,,,,,,,,,,,,,,,,,140.14800679998007,140.16044359997613,140.16044359997613,140.16044359997613,140.16044359997613,140.16044359997613,140.16044359997613,140.16044359997613,0.0010926999966613948,140.16044359997613,141.9622970999917,[-0.3606770833333333],[-0.032552083333333336],[1],[0],[0],[1.8126804999774322],[1],['subtle_anger'],141.9641391999903,141.97543900000164,0.0008495000074617565,141.97543900000164,141.97543900000164,141.97543900000164,141.97543900000164,141.97543900000164,141.97543900000164,141.97543900000164,144.3415021999972,[0.4895833333333333],[-0.109375],[1],[0],[0],[2.3756415999960154],[1],['subtle_anger_main'],,,,,,,,,,,,,,,,,,,,,,,,,,,,,,,,,,,,,,,,,,,,,,,,,,06D,001,2024-12-03_20h30.18.025,SOLO_PROJECT_EXPERIMENT_NUTAN_KAIN_AU2220019,2024.1.5,None,2024-12-03 20h30.36.527776 +0530,
25,0,25,0,,,,,144.35617909999564,,,,,,,,,,,,,,,,,144.34325819998048,144.35617909999564,144.35617909999564,144.35617909999564,144.35617909999564,144.35617909999564,144.35617909999564,144.35617909999564,0.0009168999968096614,144.35617909999564,146.10638780001318,[-0.28125],[0.32421875],[1],[0],[0],[1.7618939999956638],[1],['subtle_anger'],146.10797419998562,146.1206674000132,0.0007541000377386808,146.1206674000132,146.1206674000132,146.1206674000132,146.1206674000132,146.1206674000132,146.1206674000132,146.1206674000132,147.8887226000079,[-0.47265625],[-0.16796875],[1],[0],[0],[1.7793286999803968],[1],['subtle_anger_main'],,,,,,,,,,,,,,,,,,,,,,,,,,,,,,,,,,,,,,,,,,,,,,,,,,06D,001,2024-12-03_20h30.18.025,SOLO_PROJECT_EXPERIMENT_NUTAN_KAIN_AU2220019,2024.1.5,None,2024-12-03 20h30.36.527776 +0530,
26,0,26,0,,,,,147.90206519997446,,,,,,,,,,,,,,,,,147.89065720001236,147.90206519997446,147.90206519997446,147.90206519997446,147.90206519997446,147.90206519997446,147.90206519997446,147.90206519997446,0.0011071999906562269,147.90206519997446,149.62003230000846,[0.026041666666666668],[0.3489583333333333],[1],[0],[0],[1.7279882000293583],[1],['subtle_anger'],149.62160439998843,149.63404420000734,0.0008354000165127218,149.63404420000734,149.63404420000734,149.63404420000734,149.63404420000734,149.63404420000734,149.63404420000734,149.63404420000734,152.56635949999327,[-0.15625],[0.2669270833333333],[1],[0],[0],[2.943202599999495],[1],['subtle_anger_main'],,,,,,,,,,,,,,,,,,,,,,,,,,,,,,,,,,,,,,,,,,,,,,,,,,06D,001,2024-12-03_20h30.18.025,SOLO_PROJECT_EXPERIMENT_NUTAN_KAIN_AU2220019,2024.1.5,None,2024-12-03 20h30.36.527776 +0530,
27,0,27,0,,,,,152.58071289997315,,,,,,,,,,,,,,,,,152.5687060999917,152.58071289997315,152.58071289997315,152.58071289997315,152.58071289997315,152.58071289997315,152.58071289997315,152.58071289997315,0.0012644000235013664,152.58071289997315,154.41509309998946,[-0.18880208333333334],[0.049479166666666664],[1],[0],[0],[1.8447218000073917],[1],['subtle_anger'],154.41689260001294,154.42943399999058,0.0007043000077828765,154.42943399999058,154.42943399999058,154.42943399999058,154.42943399999058,154.42943399999058,154.42943399999058,154.42943399999058,156.92863350000698,[-0.375],[-0.1953125],[1],[0],[0],[2.5102623000275344],[1],['subtle_anger_main'],,,,,,,,,,,,,,,,,,,,,,,,,,,,,,,,,,,,,,,,,,,,,,,,,,06D,001,2024-12-03_20h30.18.025,SOLO_PROJECT_EXPERIMENT_NUTAN_KAIN_AU2220019,2024.1.5,None,2024-12-03 20h30.36.527776 +0530,
28,0,28,0,,,,,156.94292830000632,,,,,,,,,,,,,,,,,156.9311544999946,156.94292830000632,156.94292830000632,156.94292830000632,156.94292830000632,156.94292830000632,156.94292830000632,156.94292830000632,0.0011980999843217432,156.94292830000632,160.79172129998915,[0.16666666666666666],[0.4453125],[1],[0],[0],[3.8591484000207856],[1],['subtle_anger'],160.79343889997108,160.80678310000803,0.0007127999560907483,160.80678310000803,160.80678310000803,160.80678310000803,160.80678310000803,160.80678310000803,160.80678310000803,160.80678310000803,162.07320019998588,[0.20703125],[0.15494791666666666],[1],[0],[0],[1.2784061999991536],[1],['subtle_anger_main'],,,,,,,,,,,,,,,,,,,,,,,,,,,,,,,,,,,,,,,,,,,,,,,,,,06D,001,2024-12-03_20h30.18.025,SOLO_PROJECT_EXPERIMENT_NUTAN_KAIN_AU2220019,2024.1.5,None,2024-12-03 20h30.36.527776 +0530,
29,0,29,0,,,,,162.08835779997753,,,,,,,,,,,,,,,,,162.07471590000205,162.08835779997753,162.08835779997753,162.08835779997753,162.08835779997753,162.08835779997753,162.08835779997753,162.08835779997753,0.0008126000175252557,162.08835779997753,163.63898429996334,[0.2421875],[-0.3515625],[1],[0],[0],[1.5631209000130184],[1],['subtle_anger'],163.64024009997956,163.6537956999964,0.0005046000005677342,163.6537956999964,163.6537956999964,163.6537956999964,163.6537956999964,163.6537956999964,163.6537956999964,163.6537956999964,165.9372568000108,[-0.4479166666666667],[-0.2421875],[1],[0],[0],[2.2957048999960534],[1],['subtle_anger_main'],,,,,,,,,,,,,,,,,,,,,,,,,,,,,,,,,,,,,,,,,,,,,,,,,,06D,001,2024-12-03_20h30.18.025,SOLO_PROJECT_EXPERIMENT_NUTAN_KAIN_AU2220019,2024.1.5,None,2024-12-03 20h30.36.527776 +0530,
30,0,30,0,,,,,165.9511455000029,,,,,,,,,,,,,,,,,165.93954529997427,165.9511455000029,165.9511455000029,165.9511455000029,165.9511455000029,165.9511455000029,165.9511455000029,165.9511455000029,0.0012750000460073352,165.9511455000029,168.9502186999889,[0.3671875],[0.13020833333333334],[1],[0],[0],[3.0090497999917716],[1],['subtle_anger'],168.9519651000155,168.9649497999926,0.0007150999736040831,168.9649497999926,168.9649497999926,168.9649497999926,168.9649497999926,168.9649497999926,168.9649497999926,168.9649497999926,171.09831919998396,[0.4127604166666667],[0.4153645833333333],[1],[0],[0],[2.144999000011012],[1],['subtle_anger_main'],,,,,,,,,,,,,,,,,,,,,,,,,,,,,,,,,,,,,,,,,,,,,,,,,,06D,001,2024-12-03_20h30.18.025,SOLO_PROJECT_EXPERIMENT_NUTAN_KAIN_AU2220019,2024.1.5,None,2024-12-03 20h30.36.527776 +0530,
31,0,31,0,,,,,171.1130255999742,,,,,,,,,,,,,,,,,171.10052340000402,171.1130255999742,171.1130255999742,171.1130255999742,171.1130255999742,171.1130255999742,171.1130255999742,171.1130255999742,0.0012528999941423535,171.1130255999742,172.3475494000013,[-0.13802083333333334],[0.3346354166666667],[1],[0],[0],[1.245288799982518],[1],['subtle_anger'],172.35001190000912,172.36184229998617,0.0009027000050991774,172.36184229998617,172.36184229998617,172.36184229998617,172.36184229998617,172.36184229998617,172.36184229998617,172.36184229998617,174.16177959996276,[-0.3932291666666667],[0.3098958333333333],[1],[0],[0],[1.8101544000091963],[1],['subtle_anger_main'],,,,,,,,,,,,,,,,,,,,,,,,,,,,,,,,,,,,,,,,,,,,,,,,,,06D,001,2024-12-03_20h30.18.025,SOLO_PROJECT_EXPERIMENT_NUTAN_KAIN_AU2220019,2024.1.5,None,2024-12-03 20h30.36.527776 +0530,
32,0,32,0,,,,,174.17687789996853,,,,,,,,,,,,,,,,,174.164026799961,174.17687789996853,174.17687789996853,174.17687789996853,174.17687789996853,174.17687789996853,174.17687789996853,174.17687789996853,0.0018937999848276377,174.17687789996853,175.96114869997837,[0.2421875],[0.375],[1],[0],[0],[1.7946877999929711],[1],['subtle_anger'],175.96273079997627,175.9748165999772,0.000730200030375272,175.9748165999772,175.9748165999772,175.9748165999772,175.9748165999772,175.9748165999772,175.9748165999772,175.9748165999772,178.6911620000028,[0.4309895833333333],[0.09114583333333333],[1],[0],[0],[2.7270759000093676],[1],['subtle_anger_main'],,,,,,,,,,,,,,,,,,,,,,,,,,,,,,,,,,,,,,,,,,,,,,,,,,06D,001,2024-12-03_20h30.18.025,SOLO_PROJECT_EXPERIMENT_NUTAN_KAIN_AU2220019,2024.1.5,None,2024-12-03 20h30.36.527776 +0530,
33,0,33,0,,,,,178.70555539999623,,,,,,,,,,,,,,,,,178.69276359997457,178.70555539999623,178.70555539999623,178.70555539999623,178.70555539999623,178.70555539999623,178.70555539999623,178.70555539999623,0.0008710999973118305,178.70555539999623,180.555451799999,[0.2942708333333333],[0.3138020833333333],[1],[0],[0],[1.8614359000348486],[1],['subtle_anger'],180.55709819996264,180.56965269998182,0.0006405999884009361,180.56965269998182,180.56965269998182,180.56965269998182,180.56965269998182,180.56965269998182,180.56965269998182,180.56965269998182,183.7196135999984,[-0.09765625],[-0.08854166666666667],[1],[0],[0],[3.1612469000392593],[1],['subtle_anger_main'],,,,,,,,,,,,,,,,,,,,,,,,,,,,,,,,,,,,,,,,,,,,,,,,,,06D,001,2024-12-03_20h30.18.025,SOLO_PROJECT_EXPERIMENT_NUTAN_KAIN_AU2220019,2024.1.5,None,2024-12-03 20h30.36.527776 +0530,
34,0,34,0,,,,,183.73428279999644,,,,,,,,,,,,,,,,,183.7215023000026,183.73428279999644,183.73428279999644,183.73428279999644,183.73428279999644,183.73428279999644,183.73428279999644,183.73428279999644,0.0010297999833710492,183.73428279999644,185.56926219997695,[0.19921875],[0.044270833333333336],[1],[0],[0],[1.845725700026378],[1],['subtle_anger'],185.57231379998848,185.5899677000125,0.0013186000287532806,185.5899677000125,185.5899677000125,185.5899677000125,185.5899677000125,185.5899677000125,185.5899677000125,185.5899677000125,186.9821598000126,[-0.21875],[0.1015625],[1],[0],[0],[1.4079036000184715],[1],['subtle_anger_main'],,,,,,,,,,,,,,,,,,,,,,,,,,,,,,,,,,,,,,,,,,,,,,,,,,06D,001,2024-12-03_20h30.18.025,SOLO_PROJECT_EXPERIMENT_NUTAN_KAIN_AU2220019,2024.1.5,None,2024-12-03 20h30.36.527776 +0530,
35,0,35,0,,,,,186.9974957999657,,,,,,,,,,,,,,,,,186.98351260001073,186.9974957999657,186.9974957999657,186.9974957999657,186.9974957999657,186.9974957999657,186.9974957999657,186.9974957999657,0.0007256999961100519,186.9974957999657,188.54717049997998,[0.55859375],[-0.171875],[1],[0],[0],[1.5625839999993332],[1],['subtle_anger'],188.54866789997322,188.56272180000087,0.0005665000062435865,188.56272180000087,188.56272180000087,188.56272180000087,188.56272180000087,188.56272180000087,188.56272180000087,188.56272180000087,190.2293989000027,[-0.13932291666666666],[-0.3411458333333333],[1],[0],[0],[1.6795982999610715],[1],['subtle_anger_main'],,,,,,,,,,,,,,,,,,,,,,,,,,,,,,,,,,,,,,,,,,,,,,,,,,06D,001,2024-12-03_20h30.18.025,SOLO_PROJECT_EXPERIMENT_NUTAN_KAIN_AU2220019,2024.1.5,None,2024-12-03 20h30.36.527776 +0530,
36,0,36,0,,,,,190.24394469999243,,,,,,,,,,,,,,,,,190.23137230001157,190.24394469999243,190.24394469999243,190.24394469999243,190.24394469999243,190.24394469999243,190.24394469999243,190.24394469999243,0.0010232999920845032,190.24394469999243,191.89449649996823,[-0.15755208333333334],[-0.00390625],[1],[0],[0],[1.6616649000206962],[1],['subtle_anger'],191.8960603000014,191.9087849999778,0.0006475999834947288,191.9087849999778,191.9087849999778,191.9087849999778,191.9087849999778,191.9087849999778,191.9087849999778,191.9087849999778,194.82453009998426,[-0.21484375],[-0.2890625],[1],[0],[0],[2.927022100018803],[1],['subtle_anger_main'],,,,,,,,,,,,,,,,,,,,,,,,,,,,,,,,,,,,,,,,,,,,,,,,,,06D,001,2024-12-03_20h30.18.025,SOLO_PROJECT_EXPERIMENT_NUTAN_KAIN_AU2220019,2024.1.5,None,2024-12-03 20h30.36.527776 +0530,
37,0,37,0,,,,,194.83956529997522,,,,,,,,,,,,,,,,,194.82737399998587,194.83956529997522,194.83956529997522,194.83956529997522,194.83956529997522,194.83956529997522,194.83956529997522,194.83956529997522,0.0023603999870829284,194.83956529997522,196.62357200001134,[0.5286458333333334],[-0.2825520833333333],[1],[0],[0],[1.7939301999867894],[1],['subtle_anger'],196.6251135999919,196.63777999999002,0.000548299984075129,196.63777999999002,196.63777999999002,196.63777999999002,196.63777999999002,196.63777999999002,196.63777999999002,196.63777999999002,198.72153499996057,[0.40234375],[-0.049479166666666664],[1],[0],[0],[2.0951460999785922],[1],['subtle_anger_main'],,,,,,,,,,,,,,,,,,,,,,,,,,,,,,,,,,,,,,,,,,,,,,,,,,06D,001,2024-12-03_20h30.18.025,SOLO_PROJECT_EXPERIMENT_NUTAN_KAIN_AU2220019,2024.1.5,None,2024-12-03 20h30.36.527776 +0530,
38,0,38,0,,,,,198.73571320000337,,,,,,,,,,,,,,,,,198.7240165999974,198.73571320000337,198.73571320000337,198.73571320000337,198.73571320000337,198.73571320000337,198.73571320000337,198.73571320000337,0.0012701000086963177,198.73571320000337,201.13505260000238,[-0.17317708333333334],[-0.2825520833333333],[1],[0],[0],[2.409620799997356],[1],['subtle_anger'],201.1363476999686,201.1502081999788,0.0005309000262059271,201.1502081999788,201.1502081999788,201.1502081999788,201.1502081999788,201.1502081999788,201.1502081999788,201.1502081999788,204.83221729996148,[0.4348958333333333],[0.010416666666666666],[1],[0],[0],[3.6946028000093065],[1],['subtle_anger_main'],,,,,,,,,,,,,,,,,,,,,,,,,,,,,,,,,,,,,,,,,,,,,,,,,,06D,001,2024-12-03_20h30.18.025,SOLO_PROJECT_EXPERIMENT_NUTAN_KAIN_AU2220019,2024.1.5,None,2024-12-03 20h30.36.527776 +0530,
39,0,39,0,,,,,204.84628489997704,,,,,,,,,,,,,,,,,204.83436849998543,204.84628489997704,204.84628489997704,204.84628489997704,204.84628489997704,204.84628489997704,204.84628489997704,204.84628489997704,0.0012653999729081988,204.84628489997704,206.84758790000342,[-0.3619791666666667],[0.016927083333333332],[1],[0],[0],[2.0116181000485085],[1],['subtle_anger'],206.84922869998263,206.8609169999836,0.0008099999977275729,206.8609169999836,206.8609169999836,206.8609169999836,206.8609169999836,206.8609169999836,206.8609169999836,206.8609169999836,209.54407259996515,[-0.3229166666666667],[-0.4049479166666667],[1],[0],[0],[2.6933797000092454],[1],['subtle_anger_main'],,,,,,,,,,,,,,,,,,,,,,,,,,,,,,,,,,,,,,,,,,,,,,,,,,06D,001,2024-12-03_20h30.18.025,SOLO_PROJECT_EXPERIMENT_NUTAN_KAIN_AU2220019,2024.1.5,None,2024-12-03 20h30.36.527776 +0530,
40,0,40,0,,,,,209.55809010000667,,,,,,,,,,,,,,,,,209.54606119997334,209.55809010000667,209.55809010000667,209.55809010000667,209.55809010000667,209.55809010000667,209.55809010000667,209.55809010000667,0.0013747999910265207,209.55809010000667,211.7586297999951,[0.14322916666666666],[-0.3997395833333333],[1],[0],[0],[2.210806099988986],[1],['subtle_anger'],211.7599612000049,211.7731743999757,0.0006235999753698707,211.7731743999757,211.7731743999757,211.7731743999757,211.7731743999757,211.7731743999757,211.7731743999757,211.7731743999757,213.27382289996604,[-0.1015625],[0.009114583333333334],[1],[0],[0],[1.5125481999712065],[1],['subtle_anger_main'],,,,,,,,,,,,,,,,,,,,,,,,,,,,,,,,,,,,,,,,,,,,,,,,,,06D,001,2024-12-03_20h30.18.025,SOLO_PROJECT_EXPERIMENT_NUTAN_KAIN_AU2220019,2024.1.5,None,2024-12-03 20h30.36.527776 +0530,
41,0,41,0,,,,,213.2876949000056,,,,,,,,,,,,,,,,,213.27595759998076,213.2876949000056,213.2876949000056,213.2876949000056,213.2876949000056,213.2876949000056,213.2876949000056,213.2876949000056,0.0012851000064983964,213.2876949000056,215.80671089998214,[0.11067708333333333],[-0.15364583333333334],[1],[0],[0],[2.5289082000381313],[1],['subtle_anger'],215.8090749999974,215.8207182000042,0.0009353000205010176,215.8207182000042,215.8207182000042,215.8207182000042,215.8207182000042,215.8207182000042,215.8207182000042,215.8207182000042,217.25371239997912,[0.4140625],[-0.016927083333333332],[1],[0],[0],[1.4430360000114888],[1],['subtle_anger_main'],,,,,,,,,,,,,,,,,,,,,,,,,,,,,,,,,,,,,,,,,,,,,,,,,,06D,001,2024-12-03_20h30.18.025,SOLO_PROJECT_EXPERIMENT_NUTAN_KAIN_AU2220019,2024.1.5,None,2024-12-03 20h30.36.527776 +0530,
42,0,42,0,,,,,217.2676463999669,,,,,,,,,,,,,,,,,217.2556520999642,217.2676463999669,217.2676463999669,217.2676463999669,217.2676463999669,217.2676463999669,217.2676463999669,217.2676463999669,0.001108099997509271,217.2676463999669,219.51760419999482,[0.4348958333333333],[-0.2682291666666667],[1],[0],[0],[2.2604219000204466],[1],['subtle_anger'],219.5192412000033,219.53220119996695,0.0006771999760530889,219.53220119996695,219.53220119996695,219.53220119996695,219.53220119996695,219.53220119996695,219.53220119996695,219.53220119996695,221.7153118000133,[0.3541666666666667],[-0.46484375],[1],[0],[0],[2.1945640000049025],[1],['subtle_anger_main'],,,,,,,,,,,,,,,,,,,,,,,,,,,,,,,,,,,,,,,,,,,,,,,,,,06D,001,2024-12-03_20h30.18.025,SOLO_PROJECT_EXPERIMENT_NUTAN_KAIN_AU2220019,2024.1.5,None,2024-12-03 20h30.36.527776 +0530,
43,0,43,0,,,,,221.73050700000022,,,,,,,,,,,,,,,,,221.7188790999935,221.73050700000022,221.73050700000022,221.73050700000022,221.73050700000022,221.73050700000022,221.73050700000022,221.73050700000022,0.0018582000047899783,221.73050700000022,223.1645897999988,[0.2708333333333333],[-0.15234375],[1],[0],[0],[1.4436841999995522],[1],['subtle_anger'],223.16616530000465,223.1784372999682,0.0006498000002466142,223.1784372999682,223.1784372999682,223.1784372999682,223.1784372999682,223.1784372999682,223.1784372999682,223.1784372999682,225.41189449996455,[-0.3372395833333333],[-0.3815104166666667],[1],[0],[0],[2.244449399993755],[1],['subtle_anger_main'],,,,,,,,,,,,,,,,,,,,,,,,,,,,,,,,,,,,,,,,,,,,,,,,,,06D,001,2024-12-03_20h30.18.025,SOLO_PROJECT_EXPERIMENT_NUTAN_KAIN_AU2220019,2024.1.5,None,2024-12-03 20h30.36.527776 +0530,
44,0,44,0,,,,,225.42610709997825,,,,,,,,,,,,,,,,,225.41370360000292,225.42610709997825,225.42610709997825,225.42610709997825,225.42610709997825,225.42610709997825,225.42610709997825,225.42610709997825,0.0010364000336267054,225.42610709997825,226.711014600005,[0.03125],[0.15104166666666666],[1],[0],[0],[1.2956992000108585],[1],['subtle_anger'],226.71317020000424,226.72640380001394,0.0009089999948628247,226.72640380001394,226.72640380001394,226.72640380001394,226.72640380001394,226.72640380001394,226.72640380001394,226.72640380001394,229.29192769998917,[0.2786458333333333],[-0.3736979166666667],[1],[0],[0],[2.577087899961043],[1],['subtle_anger_main'],,,,,,,,,,,,,,,,,,,,,,,,,,,,,,,,,,,,,,,,,,,,,,,,,,06D,001,2024-12-03_20h30.18.025,SOLO_PROJECT_EXPERIMENT_NUTAN_KAIN_AU2220019,2024.1.5,None,2024-12-03 20h30.36.527776 +0530,
45,0,45,0,,,,,229.3058505000081,,,,,,,,,,,,,,,,,229.29401770001277,229.3058505000081,229.3058505000081,229.3058505000081,229.3058505000081,229.3058505000081,229.3058505000081,229.3058505000081,0.001240600016899407,229.3058505000081,230.85731029999442,[-0.234375],[0.10677083333333333],[1],[0],[0],[1.561519600043539],[1],['subtle_anger'],230.85936689999653,230.87169289996382,0.0009740000241436064,230.87169289996382,230.87169289996382,230.87169289996382,230.87169289996382,230.87169289996382,230.87169289996382,230.87169289996382,233.13878659997135,[0.4309895833333333],[-0.1015625],[1],[0],[0],[2.277770299988333],[1],['subtle_anger_main'],,,,,,,,,,,,,,,,,,,,,,,,,,,,,,,,,,,,,,,,,,,,,,,,,,06D,001,2024-12-03_20h30.18.025,SOLO_PROJECT_EXPERIMENT_NUTAN_KAIN_AU2220019,2024.1.5,None,2024-12-03 20h30.36.527776 +0530,
46,0,46,0,,,,,233.1519910999923,,,,,,,,,,,,,,,,,233.14096920000156,233.1519910999923,233.1519910999923,233.1519910999923,233.1519910999923,233.1519910999923,233.1519910999923,233.1519910999923,0.0012126999790780246,233.1519910999923,235.40288129996043,[0.22005208333333334],[0.21875],[1],[0],[0],[2.260258700000122],[1],['subtle_anger'],235.40486389998114,235.41662510001333,0.0009321999968960881,235.41662510001333,235.41662510001333,235.41662510001333,235.41662510001333,235.41662510001333,235.41662510001333,235.41662510001333,239.34782550000818,[0.23958333333333334],[0.3880208333333333],[1],[0],[0],[3.94125959998928],[1],['subtle_anger_main'],,,,,,,,,,,,,,,,,,,,,,,,,,,,,,,,,,,,,,,,,,,,,,,,,,06D,001,2024-12-03_20h30.18.025,SOLO_PROJECT_EXPERIMENT_NUTAN_KAIN_AU2220019,2024.1.5,None,2024-12-03 20h30.36.527776 +0530,
47,0,47,0,,,,,239.3628551000147,,,,,,,,,,,,,,,,,239.35005790001014,239.3628551000147,239.3628551000147,239.3628551000147,239.3628551000147,239.3628551000147,239.3628551000147,239.3628551000147,0.0011292000417597592,239.3628551000147,240.69754809996812,[0.3072916666666667],[-0.22265625],[1],[0],[0],[1.3459431999945082],[1],['subtle_anger'],240.69931429997087,240.71087070001522,0.0007964999531395733,240.71087070001522,240.71087070001522,240.71087070001522,240.71087070001522,240.71087070001522,240.71087070001522,240.71087070001522,244.21117199998116,[-0.5325520833333334],[-0.40234375],[1],[0],[0],[3.5101160000194795],[1],['subtle_anger_main'],,,,,,,,,,,,,,,,,,,,,,,,,,,,,,,,,,,,,,,,,,,,,,,,,,06D,001,2024-12-03_20h30.18.025,SOLO_PROJECT_EXPERIMENT_NUTAN_KAIN_AU2220019,2024.1.5,None,2024-12-03 20h30.36.527776 +0530,
48,0,48,0,,,,,244.22677399998065,,,,,,,,,,,,,,,,,244.21399740001652,244.22677399998065,244.22677399998065,244.22677399998065,244.22677399998065,244.22677399998065,244.22677399998065,244.22677399998065,0.0017173999804072082,244.22677399998065,247.44007409998449,[-0.26953125],[0.005208333333333333],[1],[0],[0],[3.224041400011629],[1],['subtle_anger'],247.44202740001492,247.45466549997218,0.0007463999791070819,247.45466549997218,247.45466549997218,247.45466549997218,247.45466549997218,247.45466549997218,247.45466549997218,247.45466549997218,250.21971099998336,[0.515625],[-0.265625],[1],[0],[0],[2.7763323000399396],[1],['subtle_anger_main'],,,,,,,,,,,,,,,,,,,,,,,,,,,,,,,,,,,,,,,,,,,,,,,,,,06D,001,2024-12-03_20h30.18.025,SOLO_PROJECT_EXPERIMENT_NUTAN_KAIN_AU2220019,2024.1.5,None,2024-12-03 20h30.36.527776 +0530,
49,0,49,0,,,,,250.23498030001065,,,,,,,,,,,,,,,,,250.22161110001616,250.23498030001065,250.23498030001065,250.23498030001065,250.23498030001065,250.23498030001065,250.23498030001065,250.23498030001065,0.001110500015784055,250.23498030001065,252.65314750000834,[-0.3346354166666667],[0.3802083333333333],[1],[0],[0],[2.4298832999775186],[1],['subtle_anger'],252.65520259999903,252.66704259999096,0.0009607000392861664,252.66704259999096,252.66704259999096,252.66704259999096,252.66704259999096,252.66704259999096,252.66704259999096,252.66704259999096,255.0324668000103,[0.22526041666666666],[0.3515625],[1],[0],[0],[2.3758144000312313],[1],['subtle_anger_main'],,,,,,,,,,,,,,,,,,,,,,,,,,,,,,,,,,,,,,,,,,,,,,,,,,06D,001,2024-12-03_20h30.18.025,SOLO_PROJECT_EXPERIMENT_NUTAN_KAIN_AU2220019,2024.1.5,None,2024-12-03 20h30.36.527776 +0530,
,,,,,,,,,,,,,,,,,,,,,,,,,,,,,,,,,,,,,,,,,,,,,,,,,,,,,,,,,,,,,,,255.03380410000682,255.04928989999462,255.04928989999462,255.04928989999462,294.06322899996303,space,39.00960230000783,None,,,,,,,,,,,,,,,,,,,,,,,,,,,,,,,,,,,,,,,,,,06D,001,2024-12-03_20h30.18.025,SOLO_PROJECT_EXPERIMENT_NUTAN_KAIN_AU2220019,2024.1.5,None,2024-12-03 20h30.36.527776 +0530,
,,,,0,0,0,0,294.24056459998246,,,,,,,,,,,,,,,,,,,,,,,,,,,,,,,,,,,,,,,,,,,,,,,,,,,,,,,,,,,,,,,294.06582610000623,294.24056459998246,294.24056459998246,294.24056459998246,294.24056459998246,294.24056459998246,294.24056459998246,294.24056459998246,0.003526699962094426,294.24056459998246,295.87534369999776,[-0.3893229166666667],[0.07942708333333333],[1],[0],[0],[1.8077219999977387],[1],['clear_anger'],295.87704980000854,296.481987999985,0.0005018000374548137,296.481987999985,296.481987999985,296.481987999985,296.481987999985,296.481987999985,296.481987999985,296.481987999985,297.6608382000122,[-0.059895833333333336],[0.3424479166666667],[1],[0],[0],[1.7824128000065684],[1],['clear_anger_main'],,,,06D,001,2024-12-03_20h30.18.025,SOLO_PROJECT_EXPERIMENT_NUTAN_KAIN_AU2220019,2024.1.5,None,2024-12-03 20h30.36.527776 +0530,
,,,,1,0,1,0,297.67671149998205,,,,,,,,,,,,,,,,,,,,,,,,,,,,,,,,,,,,,,,,,,,,,,,,,,,,,,,,,,,,,,,297.6645636999747,297.67671149998205,297.67671149998205,297.67671149998205,297.67671149998205,297.67671149998205,297.67671149998205,297.67671149998205,0.001561500015668571,297.67671149998205,299.87131660000887,[-0.0026041666666666665],[-0.07291666666666667],[1],[0],[0],[2.2049417999805883],[1],['clear_anger'],299.8730714999838,299.88621249998687,0.0008181000011973083,299.88621249998687,299.88621249998687,299.88621249998687,299.88621249998687,299.88621249998687,299.88621249998687,299.88621249998687,301.40381809999235,[-0.21484375],[-0.3802083333333333],[1],[0],[0],[1.5293153999955393],[1],['clear_anger_main'],,,,06D,001,2024-12-03_20h30.18.025,SOLO_PROJECT_EXPERIMENT_NUTAN_KAIN_AU2220019,2024.1.5,None,2024-12-03 20h30.36.527776 +0530,
,,,,2,0,2,0,301.41815719997976,,,,,,,,,,,,,,,,,,,,,,,,,,,,,,,,,,,,,,,,,,,,,,,,,,,,,,,,,,,,,,,301.4057840000023,301.41815719997976,301.41815719997976,301.41815719997976,301.41815719997976,301.41815719997976,301.41815719997976,301.41815719997976,0.0011428000289015472,301.41815719997976,303.0688097999664,[0.048177083333333336],[0.036458333333333336],[1],[0],[0],[1.6614061999716796],[1],['clear_anger'],303.0708866000059,303.08515239995904,0.001048100006300956,303.08515239995904,303.08515239995904,303.08515239995904,303.08515239995904,303.08515239995904,303.08515239995904,303.08515239995904,305.91542450001,[-0.22265625],[0.3203125],[1],[0],[0],[2.842754999990575],[1],['clear_anger_main'],,,,06D,001,2024-12-03_20h30.18.025,SOLO_PROJECT_EXPERIMENT_NUTAN_KAIN_AU2220019,2024.1.5,None,2024-12-03 20h30.36.527776 +0530,
,,,,3,0,3,0,305.9306778999744,,,,,,,,,,,,,,,,,,,,,,,,,,,,,,,,,,,,,,,,,,,,,,,,,,,,,,,,,,,,,,,305.91747889999533,305.9306778999744,305.9306778999744,305.9306778999744,305.9306778999744,305.9306778999744,305.9306778999744,305.9306778999744,0.0010978999780490994,305.9306778999744,307.5979128999752,[0.3463541666666667],[0.4140625],[1],[0],[0],[1.6787944000097923],[1],['clear_anger'],307.5992664999794,307.6123324999935,0.0005469000316224992,307.6123324999935,307.6123324999935,307.6123324999935,307.6123324999935,307.6123324999935,307.6123324999935,307.6123324999935,313.02533440000843,[0.34375],[0.4244791666666667],[1],[0],[0],[5.424944600032177],[1],['clear_anger_main'],,,,06D,001,2024-12-03_20h30.18.025,SOLO_PROJECT_EXPERIMENT_NUTAN_KAIN_AU2220019,2024.1.5,None,2024-12-03 20h30.36.527776 +0530,
,,,,4,0,4,0,313.03981109999586,,,,,,,,,,,,,,,,,,,,,,,,,,,,,,,,,,,,,,,,,,,,,,,,,,,,,,,,,,,,,,,313.026909600012,313.03981109999586,313.03981109999586,313.03981109999586,313.03981109999586,313.03981109999586,313.03981109999586,313.03981109999586,0.000734299945179373,313.03981109999586,317.05537139996886,[0.4856770833333333],[-0.25390625],[1],[0],[0],[4.0271477999631315],[1],['clear_anger'],317.05700709996745,317.06960709998384,0.0005396000342443585,317.06960709998384,317.06960709998384,317.06960709998384,317.06960709998384,317.06960709998384,317.06960709998384,317.06960709998384,321.71665439999197,[0.1640625],[-0.21744791666666666],[1],[0],[0],[4.658462899969891],[1],['clear_anger_main'],,,,06D,001,2024-12-03_20h30.18.025,SOLO_PROJECT_EXPERIMENT_NUTAN_KAIN_AU2220019,2024.1.5,None,2024-12-03 20h30.36.527776 +0530,
,,,,5,0,5,0,321.7320241999696,,,,,,,,,,,,,,,,,,,,,,,,,,,,,,,,,,,,,,,,,,,,,,,,,,,,,,,,,,,,,,,321.71867360000033,321.7320241999696,321.7320241999696,321.7320241999696,321.7320241999696,321.7320241999696,321.7320241999696,321.7320241999696,0.0011152999941259623,321.7320241999696,324.28169879998313,[0.37109375],[0.13671875],[1],[0],[0],[2.561506600002758],[1],['clear_anger'],324.28331089997664,324.2961297999718,0.0006800999981351197,324.2961297999718,324.2961297999718,324.2961297999718,324.2961297999718,324.2961297999718,324.2961297999718,324.2961297999718,325.69618869997794,[-0.13671875],[0.26171875],[1],[0],[0],[1.4116576999658719],[1],['clear_anger_main'],,,,06D,001,2024-12-03_20h30.18.025,SOLO_PROJECT_EXPERIMENT_NUTAN_KAIN_AU2220019,2024.1.5,None,2024-12-03 20h30.36.527776 +0530,
,,,,6,0,6,0,325.71132000000216,,,,,,,,,,,,,,,,,,,,,,,,,,,,,,,,,,,,,,,,,,,,,,,,,,,,,,,,,,,,,,,325.69778970000334,325.71132000000216,325.71132000000216,325.71132000000216,325.71132000000216,325.71132000000216,325.71132000000216,325.71132000000216,0.0008587000193074346,325.71132000000216,326.9129643999622,[0.16536458333333334],[0.2526041666666667],[1],[0],[0],[1.2138128000078723],[1],['clear_anger'],326.9151945000049,326.9277248000144,0.0010173000046052039,326.9277248000144,326.9277248000144,326.9277248000144,326.9277248000144,326.9277248000144,326.9277248000144,326.9277248000144,328.84324219997507,[0.06901041666666667],[-0.3307291666666667],[1],[0],[0],[1.926343600032851],[1],['clear_anger_main'],,,,06D,001,2024-12-03_20h30.18.025,SOLO_PROJECT_EXPERIMENT_NUTAN_KAIN_AU2220019,2024.1.5,None,2024-12-03 20h30.36.527776 +0530,
,,,,7,0,7,0,328.85790319996886,,,,,,,,,,,,,,,,,,,,,,,,,,,,,,,,,,,,,,,,,,,,,,,,,,,,,,,,,,,,,,,328.8449548999779,328.85790319996886,328.85790319996886,328.85790319996886,328.85790319996886,328.85790319996886,328.85790319996886,328.85790319996886,0.0009663999662734568,328.85790319996886,330.0758630000055,[-0.21223958333333334],[0.06380208333333333],[1],[0],[0],[1.2292676999932155],[1],['clear_anger'],330.07770289998734,330.0901514000143,0.0008034000056795776,330.0901514000143,330.0901514000143,330.0901514000143,330.0901514000143,330.0901514000143,330.0901514000143,330.0901514000143,332.2573845000006,[-0.4986979166666667],[-0.18619791666666666],[1],[0],[0],[2.1781369999516755],[1],['clear_anger_main'],,,,06D,001,2024-12-03_20h30.18.025,SOLO_PROJECT_EXPERIMENT_NUTAN_KAIN_AU2220019,2024.1.5,None,2024-12-03 20h30.36.527776 +0530,
,,,,8,0,8,0,332.27141879999544,,,,,,,,,,,,,,,,,,,,,,,,,,,,,,,,,,,,,,,,,,,,,,,,,,,,,,,,,,,,,,,332.25980459997663,332.27141879999544,332.27141879999544,332.27141879999544,332.27141879999544,332.27141879999544,332.27141879999544,332.27141879999544,0.0016678000101819634,332.27141879999544,333.4889325000113,[-0.4466145833333333],[-0.046875],[1],[0],[0],[1.2275364000233822],[1],['clear_anger'],333.4903486999683,333.5035013000015,0.0005728999967686832,333.5035013000015,333.5035013000015,333.5035013000015,333.5035013000015,333.5035013000015,333.5035013000015,333.5035013000015,336.0228591999621,[-0.11067708333333333],[-0.3776041666666667],[1],[0],[0],[2.531015300017316],[1],['clear_anger_main'],,,,06D,001,2024-12-03_20h30.18.025,SOLO_PROJECT_EXPERIMENT_NUTAN_KAIN_AU2220019,2024.1.5,None,2024-12-03 20h30.36.527776 +0530,
,,,,9,0,9,0,336.0378146999865,,,,,,,,,,,,,,,,,,,,,,,,,,,,,,,,,,,,,,,,,,,,,,,,,,,,,,,,,,,,,,,336.0256211999804,336.0378146999865,336.0378146999865,336.0378146999865,336.0378146999865,336.0378146999865,336.0378146999865,336.0378146999865,0.001568900013808161,336.0378146999865,337.8509284000029,[-0.2421875],[0.18359375],[1],[0],[0],[1.823564400023315],[1],['clear_anger'],337.8520856999676,337.8658153999713,0.00047580001410096884,337.8658153999713,337.8658153999713,337.8658153999713,337.8658153999713,337.8658153999713,337.8658153999713,337.8658153999713,339.64877139998134,[-0.2591145833333333],[0.4427083333333333],[1],[0],[0],[1.7955999000114389],[1],['clear_anger_main'],,,,06D,001,2024-12-03_20h30.18.025,SOLO_PROJECT_EXPERIMENT_NUTAN_KAIN_AU2220019,2024.1.5,None,2024-12-03 20h30.36.527776 +0530,
,,,,10,0,10,0,339.6643386000069,,,,,,,,,,,,,,,,,,,,,,,,,,,,,,,,,,,,,,,,,,,,,,,,,,,,,,,,,,,,,,,339.6505499999621,339.6643386000069,339.6643386000069,339.6643386000069,339.6643386000069,339.6643386000069,339.6643386000069,339.6643386000069,0.0010170000023208559,339.6643386000069,341.13387159997365,[0.4401041666666667],[-0.13932291666666666],[1],[0],[0],[1.4815109000192024],[1],['clear_anger'],341.13608219998423,341.14714139996795,0.0009107000078074634,341.14714139996795,341.14714139996795,341.14714139996795,341.14714139996795,341.14714139996795,341.14714139996795,341.14714139996795,342.81343959999504,[-0.036458333333333336],[-0.375],[1],[0],[0],[1.6756699999677949],[1],['clear_anger_main'],,,,06D,001,2024-12-03_20h30.18.025,SOLO_PROJECT_EXPERIMENT_NUTAN_KAIN_AU2220019,2024.1.5,None,2024-12-03 20h30.36.527776 +0530,
,,,,11,0,11,0,342.82787909999024,,,,,,,,,,,,,,,,,,,,,,,,,,,,,,,,,,,,,,,,,,,,,,,,,,,,,,,,,,,,,,,342.81592699995963,342.82787909999024,342.82787909999024,342.82787909999024,342.82787909999024,342.82787909999024,342.82787909999024,342.82787909999024,0.0010692999931052327,342.82787909999024,344.1294238999835,[-0.07942708333333333],[-0.07161458333333333],[1],[0],[0],[1.3121265000081621],[1],['clear_anger'],344.1311862000148,344.14293139998335,0.0007407999946735799,344.14293139998335,344.14293139998335,344.14293139998335,344.14293139998335,344.14293139998335,344.14293139998335,344.14293139998335,346.87581200001296,[0.27734375],[-0.032552083333333336],[1],[0],[0],[2.7432717999909073],[1],['clear_anger_main'],,,,06D,001,2024-12-03_20h30.18.025,SOLO_PROJECT_EXPERIMENT_NUTAN_KAIN_AU2220019,2024.1.5,None,2024-12-03 20h30.36.527776 +0530,
,,,,12,0,12,0,346.8900275999913,,,,,,,,,,,,,,,,,,,,,,,,,,,,,,,,,,,,,,,,,,,,,,,,,,,,,,,,,,,,,,,346.8772858000011,346.8900275999913,346.8900275999913,346.8900275999913,346.8900275999913,346.8900275999913,346.8900275999913,346.8900275999913,0.0008057999657467008,346.8900275999913,347.95892369997455,[0.25],[0.059895833333333336],[1],[0],[0],[1.0802033999934793],[1],['clear_anger'],347.9605014999979,347.9730624000076,0.0006050000083632767,347.9730624000076,347.9730624000076,347.9730624000076,347.9730624000076,347.9730624000076,347.9730624000076,347.9730624000076,349.3239711999777,[0.4947916666666667],[0.37109375],[1],[0],[0],[1.3621403999859467],[1],['clear_anger_main'],,,,06D,001,2024-12-03_20h30.18.025,SOLO_PROJECT_EXPERIMENT_NUTAN_KAIN_AU2220019,2024.1.5,None,2024-12-03 20h30.36.527776 +0530,
,,,,13,0,13,0,349.3379702999955,,,,,,,,,,,,,,,,,,,,,,,,,,,,,,,,,,,,,,,,,,,,,,,,,,,,,,,,,,,,,,,349.32576059998246,349.3379702999955,349.3379702999955,349.3379702999955,349.3379702999955,349.3379702999955,349.3379702999955,349.3379702999955,0.0009473999962210655,349.3379702999955,350.40551269997377,[0.12890625],[-0.07161458333333333],[1],[0],[0],[1.0784952000249177],[1],['clear_anger'],350.40721699997084,350.4201614999911,0.000603899999987334,350.4201614999911,350.4201614999911,350.4201614999911,350.4201614999911,350.4201614999911,350.4201614999911,350.4201614999911,352.65472230000887,[-0.5221354166666666],[0.3723958333333333],[1],[0],[0],[2.2460973999695852],[1],['clear_anger_main'],,,,06D,001,2024-12-03_20h30.18.025,SOLO_PROJECT_EXPERIMENT_NUTAN_KAIN_AU2220019,2024.1.5,None,2024-12-03 20h30.36.527776 +0530,
,,,,14,0,14,0,352.668552899966,,,,,,,,,,,,,,,,,,,,,,,,,,,,,,,,,,,,,,,,,,,,,,,,,,,,,,,,,,,,,,,352.65699529997073,352.668552899966,352.668552899966,352.668552899966,352.668552899966,352.668552899966,352.668552899966,352.668552899966,0.001414800004567951,352.668552899966,354.08765399997355,[0.4674479166666667],[-0.24869791666666666],[1],[0],[0],[1.4287511999718845],[1],['clear_anger'],354.08995230001165,354.10103299998445,0.0009771999903023243,354.10103299998445,354.10103299998445,354.10103299998445,354.10103299998445,354.10103299998445,354.10103299998445,354.10103299998445,355.167049199983,[0.3059895833333333],[0.41015625],[1],[0],[0],[1.0755021999939345],[1],['clear_anger_main'],,,,06D,001,2024-12-03_20h30.18.025,SOLO_PROJECT_EXPERIMENT_NUTAN_KAIN_AU2220019,2024.1.5,None,2024-12-03 20h30.36.527776 +0530,
,,,,15,0,15,0,355.18261640000856,,,,,,,,,,,,,,,,,,,,,,,,,,,,,,,,,,,,,,,,,,,,,,,,,,,,,,,,,,,,,,,355.1689778,355.18261640000856,355.18261640000856,355.18261640000856,355.18261640000856,355.18261640000856,355.18261640000856,355.18261640000856,0.0009726999560371041,355.18261640000856,356.5326282000169,[-0.09244791666666667],[-0.12369791666666667],[1],[0],[0],[1.362362399988342],[1],['clear_anger'],356.53439569997136,356.5480040999828,0.001018199953250587,356.5480040999828,356.5480040999828,356.5480040999828,356.5480040999828,356.5480040999828,356.5480040999828,356.5480040999828,358.21563709998736,[-0.07552083333333333],[-0.08333333333333333],[1],[0],[0],[1.679461799969431],[],[],,,,06D,001,2024-12-03_20h30.18.025,SOLO_PROJECT_EXPERIMENT_NUTAN_KAIN_AU2220019,2024.1.5,None,2024-12-03 20h30.36.527776 +0530,
,,,,16,0,16,0,358.22957109997515,,,,,,,,,,,,,,,,,,,,,,,,,,,,,,,,,,,,,,,,,,,,,,,,,,,,,,,,,,,,,,,358.217731599987,358.22957109997515,358.22957109997515,358.22957109997515,358.22957109997515,358.22957109997515,358.22957109997515,358.22957109997515,0.0010952000156976283,358.22957109997515,359.646900199994,[-0.016927083333333332],[-0.4114583333333333],[1],[0],[0],[1.4276163000031374],[1],['clear_anger'],359.64862699998775,359.6614405,0.0008374000317417085,359.6614405,359.6614405,359.6614405,359.6614405,359.6614405,359.6614405,359.6614405,363.36052669998026,[0.05078125],[-0.19921875],[1],[0],[0],[3.7103539000381716],[],[],,,,06D,001,2024-12-03_20h30.18.025,SOLO_PROJECT_EXPERIMENT_NUTAN_KAIN_AU2220019,2024.1.5,None,2024-12-03 20h30.36.527776 +0530,
,,,,17,0,17,0,363.37437320000026,,,,,,,,,,,,,,,,,,,,,,,,,,,,,,,,,,,,,,,,,,,,,,,,,,,,,,,,,,,,,,,363.36241150001297,363.37437320000026,363.37437320000026,363.37437320000026,363.37437320000026,363.37437320000026,363.37437320000026,363.37437320000026,0.001084199990145862,363.37437320000026,364.75856220000423,[0.0859375],[0.4088541666666667],[1],[0],[0],[1.3946320000104606],[1],['clear_anger'],364.7602167999721,364.77271399996243,0.0008737999596633017,364.77271399996243,364.77271399996243,364.77271399996243,364.77271399996243,364.77271399996243,364.77271399996243,364.77271399996243,370.08600700000534,[0.08333333333333333],[-0.3333333333333333],[1],[0],[0],[5.324410300003365],[1],['clear_anger_main'],,,,06D,001,2024-12-03_20h30.18.025,SOLO_PROJECT_EXPERIMENT_NUTAN_KAIN_AU2220019,2024.1.5,None,2024-12-03 20h30.36.527776 +0530,
,,,,18,0,18,0,370.1010543999728,,,,,,,,,,,,,,,,,,,,,,,,,,,,,,,,,,,,,,,,,,,,,,,,,,,,,,,,,,,,,,,370.0874810999958,370.1010543999728,370.1010543999728,370.1010543999728,370.1010543999728,370.1010543999728,370.1010543999728,370.1010543999728,0.0007968999561853707,370.1010543999728,373.53343770001084,[-0.057291666666666664],[-0.19270833333333334],[1],[0],[0],[3.4447366999811493],[1],['clear_anger'],373.5350174999912,373.5476272999658,0.0006461000302806497,373.5476272999658,373.5476272999658,373.5476272999658,373.5476272999658,373.5476272999658,373.5476272999658,373.5476272999658,375.1644462000113,[0.3567708333333333],[-0.1015625],[1],[0],[0],[1.6281438000150956],[1],['clear_anger_main'],,,,06D,001,2024-12-03_20h30.18.025,SOLO_PROJECT_EXPERIMENT_NUTAN_KAIN_AU2220019,2024.1.5,None,2024-12-03 20h30.36.527776 +0530,
,,,,19,0,19,0,375.179522899969,,,,,,,,,,,,,,,,,,,,,,,,,,,,,,,,,,,,,,,,,,,,,,,,,,,,,,,,,,,,,,,375.16605299996445,375.179522899969,375.179522899969,375.179522899969,375.179522899969,375.179522899969,375.179522899969,375.179522899969,0.000922399980481714,375.179522899969,379.74256719998084,[-0.4153645833333333],[-0.27734375],[1],[0],[0],[4.575211099989247],[1],['clear_anger'],379.74389549996704,379.75841060001403,0.0006230000290088356,379.75841060001403,379.75841060001403,379.75841060001403,379.75841060001403,379.75841060001403,379.75841060001403,379.75841060001403,381.6936315000057,[0.32421875],[-0.25],[1],[0],[0],[1.9481604999746196],[1],['clear_anger_main'],,,,06D,001,2024-12-03_20h30.18.025,SOLO_PROJECT_EXPERIMENT_NUTAN_KAIN_AU2220019,2024.1.5,None,2024-12-03 20h30.36.527776 +0530,
,,,,20,0,20,0,381.70785800000886,,,,,,,,,,,,,,,,,,,,,,,,,,,,,,,,,,,,,,,,,,,,,,,,,,,,,,,,,,,,,,,381.6963467000169,381.70785800000886,381.70785800000886,381.70785800000886,381.70785800000886,381.70785800000886,381.70785800000886,381.70785800000886,0.001426599978003651,381.70785800000886,382.90708679996897,[0.4010416666666667],[0.1015625],[1],[0],[0],[1.2091338000027463],[1],['clear_anger'],382.90831239998806,382.92182799999136,0.0004732999950647354,382.92182799999136,382.92182799999136,382.92182799999136,382.92182799999136,382.92182799999136,382.92182799999136,382.92182799999136,384.5386673999601,[0.17317708333333334],[-0.4244791666666667],[1],[0],[0],[1.6292750000138767],[1],['clear_anger_main'],,,,06D,001,2024-12-03_20h30.18.025,SOLO_PROJECT_EXPERIMENT_NUTAN_KAIN_AU2220019,2024.1.5,None,2024-12-03 20h30.36.527776 +0530,
,,,,21,0,21,0,384.5536776999943,,,,,,,,,,,,,,,,,,,,,,,,,,,,,,,,,,,,,,,,,,,,,,,,,,,,,,,,,,,,,,,384.54061109997565,384.5536776999943,384.5536776999943,384.5536776999943,384.5536776999943,384.5536776999943,384.5536776999943,384.5536776999943,0.0011059999815188348,384.5536776999943,385.5748874999699,[0.0234375],[0.14713541666666666],[1],[0],[0],[1.0325458999723196],[1],['clear_anger'],385.5773318000138,385.58968109998386,0.0011482000118121505,385.58968109998386,385.58968109998386,385.58968109998386,385.58968109998386,385.58968109998386,385.58968109998386,385.58968109998386,387.5695303999819,[0.2760416666666667],[0.2265625],[1],[0],[0],[1.9902490000240505],[1],['clear_anger_main'],,,,06D,001,2024-12-03_20h30.18.025,SOLO_PROJECT_EXPERIMENT_NUTAN_KAIN_AU2220019,2024.1.5,None,2024-12-03 20h30.36.527776 +0530,
,,,,22,0,22,0,387.5838223999599,,,,,,,,,,,,,,,,,,,,,,,,,,,,,,,,,,,,,,,,,,,,,,,,,,,,,,,,,,,,,,,387.5716467999737,387.5838223999599,387.5838223999599,387.5838223999599,387.5838223999599,387.5838223999599,387.5838223999599,387.5838223999599,0.0015758000081405044,387.5838223999599,389.3181650000042,[-0.5182291666666666],[-0.24739583333333334],[1],[0],[0],[1.7444713999866508],[1],['clear_anger'],389.31991779996315,389.33182129997294,0.0006477999850176275,389.33182129997294,389.33182129997294,389.33182129997294,389.33182129997294,389.33182129997294,389.33182129997294,389.33182129997294,390.6169797999901,[-0.2591145833333333],[0.15494791666666666],[1],[0],[0],[1.2956523000029847],[1],['clear_anger_main'],,,,06D,001,2024-12-03_20h30.18.025,SOLO_PROJECT_EXPERIMENT_NUTAN_KAIN_AU2220019,2024.1.5,None,2024-12-03 20h30.36.527776 +0530,
,,,,23,0,23,0,390.63089859997854,,,,,,,,,,,,,,,,,,,,,,,,,,,,,,,,,,,,,,,,,,,,,,,,,,,,,,,,,,,,,,,390.6190808999818,390.63089859997854,390.63089859997854,390.63089859997854,390.63089859997854,390.63089859997854,390.63089859997854,390.63089859997854,0.0011964999721385539,390.63089859997854,392.3148137999815,[0.2526041666666667],[0.4479166666666667],[1],[0],[0],[1.6941273999982513],[1],['clear_anger'],392.3164558999706,392.3292695999844,0.0007408999954350293,392.3292695999844,392.3292695999844,392.3292695999844,392.3292695999844,392.3292695999844,392.3292695999844,392.3292695999844,394.36242469999706,[0.3229166666666667],[-0.12109375],[1],[0],[0],[2.0445891999988817],[1],['clear_anger_main'],,,,06D,001,2024-12-03_20h30.18.025,SOLO_PROJECT_EXPERIMENT_NUTAN_KAIN_AU2220019,2024.1.5,None,2024-12-03 20h30.36.527776 +0530,
,,,,24,0,24,0,394.3771598999738,,,,,,,,,,,,,,,,,,,,,,,,,,,,,,,,,,,,,,,,,,,,,,,,,,,,,,,,,,,,,,,394.3645632999833,394.3771598999738,394.3771598999738,394.3771598999738,394.3771598999738,394.3771598999738,394.3771598999738,394.3771598999738,0.0012005000025965273,394.3771598999738,396.6109565999941,[-0.14453125],[-0.34765625],[1],[0],[0],[2.244888799963519],[1],['clear_anger'],396.61237399996025,396.62495540000964,0.0006326999864540994,396.62495540000964,396.62495540000964,396.62495540000964,396.62495540000964,396.62495540000964,396.62495540000964,396.62495540000964,398.57512669998687,[-0.037760416666666664],[-0.18359375],[1],[0],[0],[1.961564900004305],[1],['clear_anger_main'],,,,06D,001,2024-12-03_20h30.18.025,SOLO_PROJECT_EXPERIMENT_NUTAN_KAIN_AU2220019,2024.1.5,None,2024-12-03 20h30.36.527776 +0530,
,,,,25,0,25,0,398.5894338999642,,,,,,,,,,,,,,,,,,,,,,,,,,,,,,,,,,,,,,,,,,,,,,,,,,,,,,,,,,,,,,,398.5767060999642,398.5894338999642,398.5894338999642,398.5894338999642,398.5894338999642,398.5894338999642,398.5894338999642,398.5894338999642,0.0006829000194557011,398.5894338999642,400.90573030000087,[-0.4973958333333333],[-0.375],[1],[0],[0],[2.3278559999889694],[1],['clear_anger'],400.9069679999957,400.9204900999903,0.0005781999789178371,400.9204900999903,400.9204900999903,400.9204900999903,400.9204900999903,400.9204900999903,400.9204900999903,400.9204900999903,401.9382500000065,[-0.17447916666666666],[0.10026041666666667],[1],[0],[0],[1.030036400014069],[1],['clear_anger_main'],,,,06D,001,2024-12-03_20h30.18.025,SOLO_PROJECT_EXPERIMENT_NUTAN_KAIN_AU2220019,2024.1.5,None,2024-12-03 20h30.36.527776 +0530,
,,,,26,0,26,0,401.9534466000041,,,,,,,,,,,,,,,,,,,,,,,,,,,,,,,,,,,,,,,,,,,,,,,,,,,,,,,,,,,,,,,401.94029459997546,401.9534466000041,401.9534466000041,401.9534466000041,401.9534466000041,401.9534466000041,401.9534466000041,401.9534466000041,0.0011125000310130417,401.9534466000041,402.82121689995984,[-0.08072916666666667],[0.14192708333333334],[1],[0],[0],[0.8794687999761663],[1],['clear_anger'],402.8229181999923,402.8357426999719,0.0007596000214107335,402.8357426999719,402.8357426999719,402.8357426999719,402.8357426999719,402.8357426999719,402.8357426999719,402.8357426999719,403.8527427999652,[-0.10286458333333333],[0.4244791666666667],[1],[0],[0],[1.0283996000071056],[1],['clear_anger_main'],,,,06D,001,2024-12-03_20h30.18.025,SOLO_PROJECT_EXPERIMENT_NUTAN_KAIN_AU2220019,2024.1.5,None,2024-12-03 20h30.36.527776 +0530,
,,,,27,0,27,0,403.8675484000123,,,,,,,,,,,,,,,,,,,,,,,,,,,,,,,,,,,,,,,,,,,,,,,,,,,,,,,,,,,,,,,403.8549471999868,403.8675484000123,403.8675484000123,403.8675484000123,403.8675484000123,403.8675484000123,403.8675484000123,403.8675484000123,0.0011999999987892807,403.8675484000123,404.7693879000144,[-0.23307291666666666],[0.13020833333333334],[1],[0],[0],[0.9129045000299811],[1],['clear_anger'],404.7710817999905,404.78418819996295,0.0006764000281691551,404.78418819996295,404.78418819996295,404.78418819996295,404.78418819996295,404.78418819996295,404.78418819996295,404.78418819996295,406.36727220000466,[0.4388020833333333],[0.010416666666666666],[1],[0],[0],[1.5948135999497026],[1],['clear_anger_main'],,,,06D,001,2024-12-03_20h30.18.025,SOLO_PROJECT_EXPERIMENT_NUTAN_KAIN_AU2220019,2024.1.5,None,2024-12-03 20h30.36.527776 +0530,
,,,,28,0,28,0,406.3821809999645,,,,,,,,,,,,,,,,,,,,,,,,,,,,,,,,,,,,,,,,,,,,,,,,,,,,,,,,,,,,,,,406.36929679999594,406.3821809999645,406.3821809999645,406.3821809999645,406.3821809999645,406.3821809999645,406.3821809999645,406.3821809999645,0.0011517999810166657,406.3821809999645,407.7334618999739,[0.40234375],[-0.10546875],[1],[0],[0],[1.362638499995228],[1],['clear_anger'],407.735401599959,407.7473958999617,0.0009737999644130468,407.7473958999617,407.7473958999617,407.7473958999617,407.7473958999617,407.7473958999617,407.7473958999617,407.7473958999617,409.43143579998286,[-0.12890625],[-0.109375],[1],[0],[0],[1.6943369999644347],[1],['clear_anger_main'],,,,06D,001,2024-12-03_20h30.18.025,SOLO_PROJECT_EXPERIMENT_NUTAN_KAIN_AU2220019,2024.1.5,None,2024-12-03 20h30.36.527776 +0530,
,,,,29,0,29,0,409.44577569997637,,,,,,,,,,,,,,,,,,,,,,,,,,,,,,,,,,,,,,,,,,,,,,,,,,,,,,,,,,,,,,,409.4335883000167,409.44577569997637,409.44577569997637,409.44577569997637,409.44577569997637,409.44577569997637,409.44577569997637,409.44577569997637,0.001188000023830682,409.44577569997637,411.5464359999751,[0.1953125],[-0.28515625],[1],[0],[0],[2.1112966999644414],[1],['clear_anger'],411.5480894999928,411.56086139997933,0.0008196000126190484,411.56086139997933,411.56086139997933,411.56086139997933,411.56086139997933,411.56086139997933,411.56086139997933,411.56086139997933,413.8106934999814,[-0.390625],[-0.10286458333333333],[1],[0],[0],[2.2610992999980226],[1],['clear_anger_main'],,,,06D,001,2024-12-03_20h30.18.025,SOLO_PROJECT_EXPERIMENT_NUTAN_KAIN_AU2220019,2024.1.5,None,2024-12-03 20h30.36.527776 +0530,
,,,,30,0,30,0,413.8246893999749,,,,,,,,,,,,,,,,,,,,,,,,,,,,,,,,,,,,,,,,,,,,,,,,,,,,,,,,,,,,,,,413.8132280000136,413.8246893999749,413.8246893999749,413.8246893999749,413.8246893999749,413.8246893999749,413.8246893999749,413.8246893999749,0.0011480999528430402,413.8246893999749,416.4590934999869,[-0.33203125],[0.14973958333333334],[1],[0],[0],[2.644470500003081],[1],['clear_anger'],416.46092729998054,416.47253789997194,0.0008051000186242163,416.47253789997194,416.47253789997194,416.47253789997194,416.47253789997194,416.47253789997194,416.47253789997194,416.47253789997194,420.1873128999723,[0.51171875],[-0.39453125],[1],[0],[0],[3.724886299984064],[1],['clear_anger_main'],,,,06D,001,2024-12-03_20h30.18.025,SOLO_PROJECT_EXPERIMENT_NUTAN_KAIN_AU2220019,2024.1.5,None,2024-12-03 20h30.36.527776 +0530,
,,,,31,0,31,0,420.2021223999909,,,,,,,,,,,,,,,,,,,,,,,,,,,,,,,,,,,,,,,,,,,,,,,,,,,,,,,,,,,,,,,420.1896678999765,420.2021223999909,420.2021223999909,420.2021223999909,420.2021223999909,420.2021223999909,420.2021223999909,420.2021223999909,0.0012846000026911497,420.2021223999909,421.8860996000003,[-0.5026041666666666],[0.4309895833333333],[1],[0],[0],[1.6947971999761648],[1],['clear_anger'],421.8875259999768,421.9004014999955,0.0006197000038810074,421.9004014999955,421.9004014999955,421.9004014999955,421.9004014999955,421.9004014999955,421.9004014999955,421.9004014999955,424.1329027999891,[-0.18619791666666666],[-0.14713541666666666],[1],[0],[0],[2.244035299983807],[1],['clear_anger_main'],,,,06D,001,2024-12-03_20h30.18.025,SOLO_PROJECT_EXPERIMENT_NUTAN_KAIN_AU2220019,2024.1.5,None,2024-12-03 20h30.36.527776 +0530,
,,,,32,0,32,0,424.1481466999976,,,,,,,,,,,,,,,,,,,,,,,,,,,,,,,,,,,,,,,,,,,,,,,,,,,,,,,,,,,,,,,424.1350941999699,424.1481466999976,424.1481466999976,424.1481466999976,424.1481466999976,424.1481466999976,424.1481466999976,424.1481466999976,0.0010237000533379614,424.1481466999976,426.51542179996613,[-0.3515625],[-0.4231770833333333],[1],[0],[0],[2.3787994000012986],[1],['clear_anger'],426.5170003999956,426.52848049998283,0.0007725000032223761,426.52848049998283,426.52848049998283,426.52848049998283,426.52848049998283,426.52848049998283,426.52848049998283,426.52848049998283,428.6289485999732,[0.2994791666666667],[0.14453125],[1],[0],[0],[2.1103515999857336],[1],['clear_anger_main'],,,,06D,001,2024-12-03_20h30.18.025,SOLO_PROJECT_EXPERIMENT_NUTAN_KAIN_AU2220019,2024.1.5,None,2024-12-03 20h30.36.527776 +0530,
,,,,33,0,33,0,428.6437532000127,,,,,,,,,,,,,,,,,,,,,,,,,,,,,,,,,,,,,,,,,,,,,,,,,,,,,,,,,,,,,,,428.63124630000675,428.6437532000127,428.6437532000127,428.6437532000127,428.6437532000127,428.6437532000127,428.6437532000127,428.6437532000127,0.0013658999814651906,428.6437532000127,434.4229021999636,[0.3880208333333333],[-0.3411458333333333],[1],[0],[0],[5.789935900014825],[],[],434.4248005999834,434.4375028999639,0.0010145000414922833,434.4375028999639,434.4375028999639,434.4375028999639,434.4375028999639,434.4375028999639,434.4375028999639,434.4375028999639,436.8389785999898,[-0.3567708333333333],[-0.22265625],[1],[0],[0],[2.412251000001561],[1],['clear_anger_main'],,,,06D,001,2024-12-03_20h30.18.025,SOLO_PROJECT_EXPERIMENT_NUTAN_KAIN_AU2220019,2024.1.5,None,2024-12-03 20h30.36.527776 +0530,
,,,,34,0,34,0,436.8523013999802,,,,,,,,,,,,,,,,,,,,,,,,,,,,,,,,,,,,,,,,,,,,,,,,,,,,,,,,,,,,,,,436.84202859998913,436.8523013999802,436.8523013999802,436.8523013999802,436.8523013999802,436.8523013999802,436.8523013999802,436.8523013999802,0.0018291000160388649,436.8523013999802,439.01997640001355,[-0.5221354166666666],[0.3606770833333333],[1],[0],[0],[2.1756997000193223],[1],['clear_anger'],439.0230114000151,439.03633739997167,0.001069999998435378,439.03633739997167,439.03633739997167,439.03633739997167,439.03633739997167,439.03633739997167,439.03633739997167,439.03633739997167,441.1664732999634,[-0.20442708333333334],[-0.2838541666666667],[1],[0],[0],[2.1415246999822557],[1],['clear_anger_main'],,,,06D,001,2024-12-03_20h30.18.025,SOLO_PROJECT_EXPERIMENT_NUTAN_KAIN_AU2220019,2024.1.5,None,2024-12-03 20h30.36.527776 +0530,
,,,,35,0,35,0,441.181599500007,,,,,,,,,,,,,,,,,,,,,,,,,,,,,,,,,,,,,,,,,,,,,,,,,,,,,,,,,,,,,,,441.1685852999799,441.181599500007,441.181599500007,441.181599500007,441.181599500007,441.181599500007,441.181599500007,441.181599500007,0.001222899998538196,441.181599500007,443.7832836000016,[0.12109375],[-0.39453125],[1],[0],[0],[2.612951699993573],[1],['clear_anger'],443.7852746999706,443.7969146000105,0.000811199948657304,443.7969146000105,443.7969146000105,443.7969146000105,443.7969146000105,443.7969146000105,443.7969146000105,443.7969146000105,444.8964235999738,[0.20052083333333334],[0.390625],[1],[0],[0],[1.1096835999633186],[1],['clear_anger_main'],,,,06D,001,2024-12-03_20h30.18.025,SOLO_PROJECT_EXPERIMENT_NUTAN_KAIN_AU2220019,2024.1.5,None,2024-12-03 20h30.36.527776 +0530,
,,,,36,0,36,0,444.9111816000077,,,,,,,,,,,,,,,,,,,,,,,,,,,,,,,,,,,,,,,,,,,,,,,,,,,,,,,,,,,,,,,444.8979158999864,444.9111816000077,444.9111816000077,444.9111816000077,444.9111816000077,444.9111816000077,444.9111816000077,444.9111816000077,0.0008064000285230577,444.9111816000077,446.02868049999233,[0.10807291666666667],[0.08072916666666667],[1],[0],[0],[1.1294744000188075],[1],['clear_anger'],446.03045999997994,446.04301099997247,0.0007001000340096653,446.04301099997247,446.04301099997247,446.04301099997247,446.04301099997247,446.04301099997247,446.04301099997247,446.04301099997247,448.49266809999244,[0.10286458333333333],[0.3997395833333333],[1],[0],[0],[2.460751499980688],[1],['clear_anger_main'],,,,06D,001,2024-12-03_20h30.18.025,SOLO_PROJECT_EXPERIMENT_NUTAN_KAIN_AU2220019,2024.1.5,None,2024-12-03 20h30.36.527776 +0530,
,,,,37,0,37,0,448.5074234000058,,,,,,,,,,,,,,,,,,,,,,,,,,,,,,,,,,,,,,,,,,,,,,,,,,,,,,,,,,,,,,,448.49501889996463,448.5074234000058,448.5074234000058,448.5074234000058,448.5074234000058,448.5074234000058,448.5074234000058,448.5074234000058,0.0011957999668084085,448.5074234000058,450.39089579996653,[-0.4518229166666667],[0.0013020833333333333],[1],[0],[0],[1.894499399990309],[1],['clear_anger'],450.39206420001574,450.4055648999638,0.0004898000042885542,450.4055648999638,450.4055648999638,450.4055648999638,450.4055648999638,450.4055648999638,450.4055648999638,450.4055648999638,451.540724099963,[-0.3776041666666667],[0.16796875],[1],[0],[0],[1.1474469000240788],[1],['clear_anger_main'],,,,06D,001,2024-12-03_20h30.18.025,SOLO_PROJECT_EXPERIMENT_NUTAN_KAIN_AU2220019,2024.1.5,None,2024-12-03 20h30.36.527776 +0530,
,,,,38,0,38,0,451.5541390000144,,,,,,,,,,,,,,,,,,,,,,,,,,,,,,,,,,,,,,,,,,,,,,,,,,,,,,,,,,,,,,,451.5428027000162,451.5541390000144,451.5541390000144,451.5541390000144,451.5541390000144,451.5541390000144,451.5541390000144,451.5541390000144,0.0011378999915905297,451.5541390000144,452.63884849997703,[-0.2578125],[0.15885416666666666],[1],[0],[0],[1.0945087000145577],[1],['clear_anger'],452.6403035999974,452.65369110001484,0.000666300009470433,452.65369110001484,452.65369110001484,452.65369110001484,452.65369110001484,452.65369110001484,452.65369110001484,452.65369110001484,455.5029574999935,[-0.22916666666666666],[-0.05859375],[1],[0],[0],[2.8613231999916025],[1],['clear_anger_main'],,,,06D,001,2024-12-03_20h30.18.025,SOLO_PROJECT_EXPERIMENT_NUTAN_KAIN_AU2220019,2024.1.5,None,2024-12-03 20h30.36.527776 +0530,
,,,,39,0,39,0,455.51694699999643,,,,,,,,,,,,,,,,,,,,,,,,,,,,,,,,,,,,,,,,,,,,,,,,,,,,,,,,,,,,,,,455.50506729999324,455.51694699999643,455.51694699999643,455.51694699999643,455.51694699999643,455.51694699999643,455.51694699999643,455.51694699999643,0.0011798000195994973,455.51694699999643,456.95193029998336,[0.2760416666666667],[0.23307291666666666],[1],[0],[0],[1.4453131000045687],[1],['clear_anger'],456.95370439998806,456.96555229998194,0.0008365000248886645,456.96555229998194,456.96555229998194,456.96555229998194,456.96555229998194,456.96555229998194,456.96555229998194,456.96555229998194,458.6506073999917,[0.4205729166666667],[-0.17057291666666666],[1],[0],[0],[1.6952497000456788],[1],['clear_anger_main'],,,,06D,001,2024-12-03_20h30.18.025,SOLO_PROJECT_EXPERIMENT_NUTAN_KAIN_AU2220019,2024.1.5,None,2024-12-03 20h30.36.527776 +0530,
,,,,40,0,40,0,458.66436529997736,,,,,,,,,,,,,,,,,,,,,,,,,,,,,,,,,,,,,,,,,,,,,,,,,,,,,,,,,,,,,,,458.6529509999673,458.66436529997736,458.66436529997736,458.66436529997736,458.66436529997736,458.66436529997736,458.66436529997736,458.66436529997736,0.0013975000474601984,458.66436529997736,459.6655506999814,[-0.10807291666666667],[0.06380208333333333],[1],[0],[0],[1.011026599968318],[1],['clear_anger'],459.66662709997036,459.6795041000005,0.0006862999871373177,459.6795041000005,459.6795041000005,459.6795041000005,459.6795041000005,459.6795041000005,459.6795041000005,459.6795041000005,460.7478664999944,[0.3020833333333333],[0.3177083333333333],[1],[0],[0],[1.0797813999815844],[1],['clear_anger_main'],,,,06D,001,2024-12-03_20h30.18.025,SOLO_PROJECT_EXPERIMENT_NUTAN_KAIN_AU2220019,2024.1.5,None,2024-12-03 20h30.36.527776 +0530,
,,,,41,0,41,0,460.76206629996886,,,,,,,,,,,,,,,,,,,,,,,,,,,,,,,,,,,,,,,,,,,,,,,,,,,,,,,,,,,,,,,460.7499768999987,460.76206629996886,460.76206629996886,460.76206629996886,460.76206629996886,460.76206629996886,460.76206629996886,460.76206629996886,0.0011394000030122697,460.76206629996886,461.9978240999626,[0.2565104166666667],[-0.08203125],[1],[0],[0],[1.2463144999928772],[1],['clear_anger'],461.99983629997587,462.0110297999927,0.000755899993237108,462.0110297999927,462.0110297999927,462.0110297999927,462.0110297999927,462.0110297999927,462.0110297999927,462.0110297999927,462.91530890000286,[-0.19401041666666666],[-0.07291666666666667],[1],[0],[0],[0.9135299999616109],[1],['clear_anger_main'],,,,06D,001,2024-12-03_20h30.18.025,SOLO_PROJECT_EXPERIMENT_NUTAN_KAIN_AU2220019,2024.1.5,None,2024-12-03 20h30.36.527776 +0530,
,,,,42,0,42,0,462.93048889999045,,,,,,,,,,,,,,,,,,,,,,,,,,,,,,,,,,,,,,,,,,,,,,,,,,,,,,,,,,,,,,,462.91809689998627,462.93048889999045,462.93048889999045,462.93048889999045,462.93048889999045,462.93048889999045,462.93048889999045,462.93048889999045,0.0016213000053539872,462.93048889999045,464.04475180001464,[-0.51171875],[-0.21223958333333334],[1],[0],[0],[1.1247185000102036],[1],['clear_anger'],464.0464845999959,464.05902230000356,0.0007993000326678157,464.05902230000356,464.05902230000356,464.05902230000356,464.05902230000356,464.05902230000356,464.05902230000356,464.05902230000356,465.8920882999664,[0.4036458333333333],[-0.3815104166666667],[1],[0],[0],[1.8442360000335611],[1],['clear_anger_main'],,,,06D,001,2024-12-03_20h30.18.025,SOLO_PROJECT_EXPERIMENT_NUTAN_KAIN_AU2220019,2024.1.5,None,2024-12-03 20h30.36.527776 +0530,
,,,,43,0,43,0,465.90693910000846,,,,,,,,,,,,,,,,,,,,,,,,,,,,,,,,,,,,,,,,,,,,,,,,,,,,,,,,,,,,,,,465.89374889998,465.90693910000846,465.90693910000846,465.90693910000846,465.90693910000846,465.90693910000846,465.90693910000846,465.90693910000846,0.0008990999776870012,465.90693910000846,466.9247830999666,[0.3580729166666667],[0.11979166666666667],[1],[0],[0],[1.0297534999554045],[1],['clear_anger'],466.92607609997503,466.93960459996015,0.000631700037047267,466.93960459996015,466.93960459996015,466.93960459996015,466.93960459996015,466.93960459996015,466.93960459996015,466.93960459996015,467.97521389997564,[0.0546875],[0.13411458333333334],[1],[0],[0],[1.0476916000479832],[1],['clear_anger_main'],,,,06D,001,2024-12-03_20h30.18.025,SOLO_PROJECT_EXPERIMENT_NUTAN_KAIN_AU2220019,2024.1.5,None,2024-12-03 20h30.36.527776 +0530,
,,,,44,0,44,0,467.9890509999823,,,,,,,,,,,,,,,,,,,,,,,,,,,,,,,,,,,,,,,,,,,,,,,,,,,,,,,,,,,,,,,467.9777753999806,467.9890509999823,467.9890509999823,467.9890509999823,467.9890509999823,467.9890509999823,467.9890509999823,467.9890509999823,0.0012125999783165753,467.9890509999823,470.1043056999915,[0.13802083333333334],[0.20703125],[1],[0],[0],[2.125018899969291],[1],['clear_anger'],470.10548849997576,470.1193434000015,0.0005435000057332218,470.1193434000015,470.1193434000015,470.1193434000015,470.1193434000015,470.1193434000015,470.1193434000015,470.1193434000015,471.3868480999954,[0.2955729166666667],[-0.265625],[1],[0],[0],[1.2800406999886036],[1],['clear_anger_main'],,,,06D,001,2024-12-03_20h30.18.025,SOLO_PROJECT_EXPERIMENT_NUTAN_KAIN_AU2220019,2024.1.5,None,2024-12-03 20h30.36.527776 +0530,
,,,,45,0,45,0,471.40145000000484,,,,,,,,,,,,,,,,,,,,,,,,,,,,,,,,,,,,,,,,,,,,,,,,,,,,,,,,,,,,,,,471.38954930001637,471.40145000000484,471.40145000000484,471.40145000000484,471.40145000000484,471.40145000000484,471.40145000000484,471.40145000000484,0.0015263999812304974,471.40145000000484,472.30302300001495,[-0.3098958333333333],[0.13020833333333334],[1],[0],[0],[0.9119606000022031],[1],['clear_anger'],472.3046519999625,472.3177590999985,0.0008298999746330082,472.3177590999985,472.3177590999985,472.3177590999985,472.3177590999985,472.3177590999985,472.3177590999985,472.3177590999985,473.43573979998473,[-0.1640625],[0.06510416666666667],[1],[0],[0],[1.1294812000123784],[1],['clear_anger_main'],,,,06D,001,2024-12-03_20h30.18.025,SOLO_PROJECT_EXPERIMENT_NUTAN_KAIN_AU2220019,2024.1.5,None,2024-12-03 20h30.36.527776 +0530,
,,,,46,0,46,0,473.4493310999824,,,,,,,,,,,,,,,,,,,,,,,,,,,,,,,,,,,,,,,,,,,,,,,,,,,,,,,,,,,,,,,473.438282899966,473.4493310999824,473.4493310999824,473.4493310999824,473.4493310999824,473.4493310999824,473.4493310999824,473.4493310999824,0.001262800011318177,473.4493310999824,474.98431149998214,[0.4049479166666667],[-0.07682291666666667],[1],[0],[0],[1.5445155000197701],[1],['clear_anger'],474.98574899998493,474.9981094999821,0.0006974000134505332,474.9981094999821,474.9981094999821,474.9981094999821,474.9981094999821,474.9981094999821,474.9981094999821,474.9981094999821,475.9154419999686,[0.28515625],[0.2421875],[1],[0],[0],[0.9282984000165015],[1],['clear_anger_main'],,,,06D,001,2024-12-03_20h30.18.025,SOLO_PROJECT_EXPERIMENT_NUTAN_KAIN_AU2220019,2024.1.5,None,2024-12-03 20h30.36.527776 +0530,
,,,,47,0,47,0,475.9305939999758,,,,,,,,,,,,,,,,,,,,,,,,,,,,,,,,,,,,,,,,,,,,,,,,,,,,,,,,,,,,,,,475.9175081999856,475.9305939999758,475.9305939999758,475.9305939999758,475.9305939999758,475.9305939999758,475.9305939999758,475.9305939999758,0.0009967999649234116,475.9305939999758,477.59814459999325,[-0.4153645833333333],[-0.31640625],[1],[0],[0],[1.6792929000221193],[1],['clear_anger'],477.60031870001694,477.61188759998186,0.0006584000075235963,477.61188759998186,477.61188759998186,477.61188759998186,477.61188759998186,477.61188759998186,477.61188759998186,477.61188759998186,479.09618290001526,[-0.4661458333333333],[0.171875],[1],[0],[0],[1.4945494999992661],[1],['clear_anger_main'],,,,06D,001,2024-12-03_20h30.18.025,SOLO_PROJECT_EXPERIMENT_NUTAN_KAIN_AU2220019,2024.1.5,None,2024-12-03 20h30.36.527776 +0530,
,,,,48,0,48,0,479.1104638999677,,,,,,,,,,,,,,,,,,,,,,,,,,,,,,,,,,,,,,,,,,,,,,,,,,,,,,,,,,,,,,,479.0979173000087,479.1104638999677,479.1104638999677,479.1104638999677,479.1104638999677,479.1104638999677,479.1104638999677,479.1104638999677,0.0010343000176362693,479.1104638999677,481.077072999964,[-0.13932291666666666],[0.4752604166666667],[1],[0],[0],[1.9777636000071652],[1],['clear_anger'],481.0781847999897,481.0920201999834,0.00045190000673756003,481.0920201999834,481.0920201999834,481.0920201999834,481.0920201999834,481.0920201999834,481.0920201999834,481.0920201999834,482.7599315000116,[-0.2630208333333333],[-0.3619791666666667],[1],[0],[0],[1.6805815999978222],[1],['clear_anger_main'],,,,06D,001,2024-12-03_20h30.18.025,SOLO_PROJECT_EXPERIMENT_NUTAN_KAIN_AU2220019,2024.1.5,None,2024-12-03 20h30.36.527776 +0530,
,,,,49,0,49,0,482.77355069998885,,,,,,,,,,,,,,,,,,,,,,,,,,,,,,,,,,,,,,,,,,,,,,,,,,,,,,,,,,,,,,,482.7624488999718,482.77355069998885,482.77355069998885,482.77355069998885,482.77355069998885,482.77355069998885,482.77355069998885,482.77355069998885,0.0014737999881617725,482.77355069998885,484.3588579999632,[0.3424479166666667],[-0.33984375],[1],[0],[0],[1.5947987000108697],[1],['clear_anger'],484.3606108999811,484.37269429996377,0.0008985000313259661,484.37269429996377,484.37269429996377,484.37269429996377,484.37269429996377,484.37269429996377,484.37269429996377,484.37269429996377,485.9236392999883,[0.4817708333333333],[0.3098958333333333],[1],[0],[0],[1.5610274000209756],[1],['clear_anger_main'],,,,06D,001,2024-12-03_20h30.18.025,SOLO_PROJECT_EXPERIMENT_NUTAN_KAIN_AU2220019,2024.1.5,None,2024-12-03 20h30.36.527776 +0530,
,,,,,,,,,,,,,,,,,,,,,,,,,,,,,,,,,,,,,,,,,,,,,,,,,,,,,,,,,,,,,,,,,,,,,,,,,,,,,,,,,,,,,,,,,,,,,,,,,,,,,,,,,,,,,485.9256896000006,485.93939999997383,488.9357899999595,06D,001,2024-12-03_20h30.18.025,SOLO_PROJECT_EXPERIMENT_NUTAN_KAIN_AU2220019,2024.1.5,None,2024-12-03 20h30.36.527776 +0530,
